=== 実行ログ ===
スクリプト: run_gyro_state_trace.py
実行日時 : 2026-09-19 11:16:30
ハブ     : --name Pybricks Hub3
==================================================

Searching for Pybricks Hub3...

  0%|          | 0.00/7.45k [00:00<?, ?B/s]
 14%|█▎        | 1.01k/7.45k [00:00<00:00, 9.78kB/s]
 27%|██▋       | 2.03k/7.45k [00:00<00:00, 9.47kB/s]
 41%|████      | 3.04k/7.45k [00:00<00:00, 9.33kB/s]
 54%|█████▍    | 4.06k/7.45k [00:00<00:00, 9.32kB/s]
 68%|██████▊   | 5.07k/7.45k [00:00<00:00, 9.28kB/s]
 82%|████████▏ | 6.08k/7.45k [00:00<00:00, 9.24kB/s]
 95%|█████████▌| 7.10k/7.45k [00:00<00:00, 7.17kB/s]
100%|██████████| 7.45k/7.45k [00:01<00:00, 6.38kB/s]
=== ロボット初期化開始 ===
★ 走行設定: new （new＝今年の値 / old＝昨年の速度・加速度・PID）
✓ 機体の校正表: Pybricks Hub3 {'heading_correction': 365.8, 'wheel': 62.32, 'axle': 114.48}
✓ ハブ設定完了
✓ モーター設定完了
✓ デフォルト設定適用: 直進={'straight_acceleration': 800, 'straight_speed': 550}, 回転={'turn_acceleration': 313, 'turn_rate': 250}
✓ ロボットパラメータ設定完了
✓ PID制御設定完了（Pybricks の既定値を使用）
✓ センサー初期化完了
✓ モーター角度リセット完了: 全モーター=0°
=== ロボット初期化完了 ===
# imu.settings: (2.0, 2500.0, (0.107595, -1.197198, -0.486059), (366.1989, 351.5872, 362.0139), (10031.61, -9781.568, 9785.638, -9813.727, 9523.833, -10133.98), 365.8)
# 前: tilt (-0.1283473, 0.236495) / 角速度 Matrix([
    [  -0.026],
    [  -0.022],
    [   0.048],
])
# ★いま★ ライトが緑になったら（ピーと鳴ったら）、手で定規にぴったり当て直して、手を離してね
# 列: T,ms,heading*100,rotZ*100,wz*10,ax,ay,az,left,right,stationary
T,0,0,0,1,25,61,9790,1,0,1
T,20,0,0,0,68,16,9780,1,0,0
T,40,0,0,0,-97,9,9776,0,0,0
T,60,0,0,1,108,49,9799,0,0,0
T,80,0,0,-1,13,119,9847,0,0,0
T,100,0,0,-1,27,90,9833,0,0,0
T,120,0,0,0,6,-36,9838,0,0,0
T,140,0,0,-2,53,81,9840,0,0,0
T,160,0,0,0,-38,6,9826,0,0,0
T,180,0,0,-2,-320,66,9835,0,0,0
T,200,3,-3,-27,279,-553,9988,1,-1,0
T,220,17,-17,-132,-908,478,9506,1,-2,0
T,240,63,-64,-324,-960,1175,9756,2,-3,0
T,260,138,-141,-434,-1554,-64,9083,5,-6,0
T,280,234,-238,-534,-1090,308,9530,6,-9,0
T,300,352,-358,-667,-1761,1645,10588,9,-12,0
T,320,497,-505,-808,-1777,287,8025,12,-16,0
T,340,670,-680,-937,-2244,1321,10315,16,-20,0
T,360,866,-880,-1046,-2434,-577,9981,21,-25,0
T,380,1084,-1102,-1162,319,-1202,8933,28,-31,0
T,400,1324,-1346,-1291,-178,538,11060,34,-37,0
T,420,1585,-1627,-1368,-716,550,9747,40,-44,0
T,440,1875,-1906,-1424,660,-752,9491,47,-49,0
T,460,2162,-2196,-1496,591,-1621,6091,53,-56,0
T,480,2462,-2501,-1556,-3609,2435,12515,59,-62,0
T,500,2773,-2818,-1613,-261,-342,10428,66,-68,0
T,520,3099,-3149,-1709,-1782,1678,12859,73,-76,0
T,540,3440,-3495,-1759,-652,665,13492,80,-83,0
T,560,3791,-3852,-1814,852,1484,13076,87,-90,0
T,580,4147,-4214,-1828,-891,2716,9828,95,-98,0
T,600,4508,-4581,-1858,873,-172,9639,103,-107,0
T,620,4881,-4959,-1916,468,-2548,7151,111,-115,0
T,640,5260,-5345,-1936,125,1070,7941,120,-124,0
T,660,5646,-5737,-1977,-194,1712,13370,129,-133,0
T,680,6039,-6136,-2010,27,1652,14127,137,-142,0
T,700,6440,-6544,-2069,-749,2850,7352,146,-151,0
T,720,6851,-6961,-2095,279,267,3461,155,-160,0
T,740,7266,-7384,-2145,56,-1253,5314,164,-170,0
T,760,7693,-7817,-2208,-649,-287,8128,174,-181,0
T,780,8128,-8259,-2248,859,-2180,4693,185,-191,0
T,800,8569,-8707,-2257,-2865,3645,7781,196,-202,0
T,820,9016,-9161,-2310,-1535,3221,10879,207,-213,0
T,840,9471,-9623,-2325,-448,160,8624,217,-224,0
T,860,9928,-10116,-2363,-1021,3274,10375,227,-236,0
T,880,10421,-10589,-2382,-2242,3604,9573,238,-247,0
T,900,10893,-11068,-2417,-1028,1815,5802,248,-258,0
T,920,11371,-11555,-2456,-152,-579,9260,259,-268,0
T,940,11858,-12049,-2501,-318,1285,9348,271,-280,0
T,960,12352,-12551,-2524,13,2601,7786,283,-291,0
T,980,12849,-13056,-2561,-277,-560,11170,295,-303,0
T,1000,13351,-13566,-2558,-1697,2562,8538,306,-312,0
T,1020,13856,-14079,-2593,-765,914,16207,317,-323,0
T,1040,14362,-14594,-2589,-3031,5324,12981,328,-335,0
T,1060,14874,-15114,-2625,-836,418,8264,339,-347,0
T,1080,15389,-15637,-2618,-3097,1525,8123,350,-360,0
T,1100,15902,-16158,-2616,-1249,742,4204,360,-372,0
T,1120,16419,-16683,-2634,37,2924,11536,371,-384,0
T,1140,16937,-17210,-2623,366,2706,11478,382,-396,0
T,1160,17454,-17735,-2657,-360,404,8696,394,-407,0
T,1180,17973,-18262,-2630,-2761,4567,10053,406,-417,0
T,1200,18487,-18784,-2595,-1493,4773,11275,417,-428,0
T,1220,18998,-19304,-2612,-2064,2030,9611,428,-438,0
T,1240,19512,-19826,-2618,-2509,-936,7306,439,-447,0
T,1260,20026,-20349,-2605,892,2299,14179,449,-458,0
T,1280,20537,-20868,-2617,-706,4323,11593,460,-468,0
T,1300,21052,-21391,-2650,2719,533,17458,472,-479,0
T,1320,21568,-21947,-2627,-964,2941,13031,483,-489,0
T,1340,22113,-22470,-2621,421,52,4624,495,-500,0
T,1360,22628,-22992,-2628,579,902,6184,505,-511,0
T,1380,23144,-23517,-2642,423,835,6179,515,-521,0
T,1400,23661,-24042,-2625,-1078,1003,6910,525,-533,0
T,1420,24178,-24567,-2634,-592,1602,10287,536,-544,0
T,1440,24690,-25088,-2593,-1836,390,8985,547,-555,0
T,1460,25198,-25604,-2567,-1412,2723,633,558,-566,0
T,1480,25707,-26122,-2580,-2095,6701,10282,568,-578,0
T,1500,26214,-26636,-2606,1809,-4731,11973,579,-589,0
T,1520,26718,-27148,-2542,1328,6095,9534,589,-600,0
T,1540,27220,-27658,-2514,2707,756,-316,599,-611,0
T,1560,27721,-28167,-2531,340,8644,23415,609,-621,0
T,1580,28220,-28674,-2573,3160,-4563,6339,621,-631,0
T,1600,28725,-29188,-2575,-355,380,6957,631,-641,0
T,1620,29230,-29701,-2558,-770,1731,3967,642,-651,0
T,1640,29732,-30211,-2567,134,1554,11335,654,-663,0
T,1660,30235,-30722,-2574,-3327,6146,12333,665,-671,0
T,1680,30738,-31233,-2559,117,624,6652,675,-682,0
T,1700,31241,-31744,-2572,463,3432,14841,686,-692,0
T,1720,31743,-32254,-2559,639,3221,9513,696,-703,0
T,1740,32242,-32762,-2549,1714,1338,9606,707,-715,0
T,1760,32740,-33297,-2523,-384,1913,11072,716,-726,0
T,1780,33265,-33801,-2527,-258,399,3805,726,-737,0
T,1800,33763,-34307,-2533,-334,-436,6640,737,-748,0
T,1820,34258,-34810,-2524,444,-2180,14366,748,-759,0
T,1840,34752,-35311,-2539,-327,4347,13664,759,-770,0
T,1860,35247,-35815,-2527,726,2174,11505,770,-779,0
T,1880,35737,-36313,-2492,-178,1269,7492,781,-789,0
T,1900,36224,-36808,-2470,776,775,7027,792,-798,0
T,1920,36712,-37304,-2472,-3071,5942,13069,802,-807,0
T,1940,37200,-37800,-2485,-1472,1388,7812,812,-817,0
T,1960,37690,-38298,-2499,738,1300,11612,823,-828,0
T,1980,38182,-38797,-2500,442,3837,6210,834,-838,0
T,2000,38673,-39296,-2481,-1898,3422,10974,845,-848,0
T,2020,39161,-39792,-2488,558,-2038,7203,856,-858,0
T,2040,39649,-40288,-2478,397,2260,9582,866,-869,0
T,2060,40137,-40784,-2492,-993,3204,12842,876,-879,0
T,2080,40626,-41281,-2477,930,588,4767,887,-891,0
T,2100,41116,-41778,-2488,42,3513,10067,897,-902,0
T,2120,41603,-42273,-2472,-597,993,8522,908,-913,0
T,2140,42086,-42764,-2459,-1287,615,13874,919,-924,0
T,2160,42569,-43255,-2448,2122,-532,9300,929,-935,0
T,2180,43050,-43743,-2424,-900,5238,12670,939,-947,0
T,2200,43524,-44254,-2420,-756,675,7094,950,-957,0
T,2220,44028,-44738,-2433,-431,2181,17107,960,-968,0
T,2240,44508,-45225,-2463,951,-1602,15526,971,-978,0
T,2260,44992,-45717,-2469,-1498,5207,11646,982,-988,0
T,2280,45480,-46213,-2490,-851,3077,11304,993,-999,0
T,2300,45970,-46710,-2499,1361,857,5458,1004,-1009,0
T,2320,46462,-47211,-2519,-1777,2543,5109,1015,-1020,0
T,2340,46961,-47718,-2550,-168,1987,9661,1027,-1029,0
T,2360,47464,-48229,-2563,193,78,11493,1037,-1040,0
T,2380,47963,-48736,-2545,-239,3477,12128,1048,-1051,0
T,2400,48466,-49246,-2570,-97,2890,18987,1059,-1062,0
T,2420,48970,-49759,-2552,-1218,2165,8801,1070,-1074,0
T,2440,49473,-50270,-2565,527,1144,11077,1080,-1086,0
T,2460,49979,-50785,-2584,1577,6167,14368,1090,-1098,0
T,2480,50490,-51303,-2612,-1391,2555,14523,1101,-1109,0
T,2500,51003,-51825,-2620,2669,2438,12037,1112,-1121,0
T,2520,51519,-52349,-2637,-564,1240,7454,1124,-1132,0
T,2540,52036,-52874,-2604,-929,3975,7268,1135,-1142,0
T,2560,52546,-53393,-2593,-557,1657,12238,1146,-1152,0
T,2580,53055,-53910,-2599,1577,-282,6231,1157,-1162,0
T,2600,53569,-54432,-2623,-604,2363,8987,1167,-1172,0
T,2620,54082,-54953,-2623,435,263,7220,1178,-1182,0
T,2640,54596,-55476,-2631,-950,3171,11968,1189,-1192,0
T,2660,55112,-56030,-2634,1383,52,12138,1200,-1203,0
T,2680,55655,-56552,-2619,861,2126,10084,1211,-1214,0
T,2700,56168,-57073,-2601,-1633,3207,7115,1222,-1225,0
T,2720,56683,-57596,-2612,-528,2723,9042,1233,-1235,0
T,2740,57197,-58118,-2623,-1007,4251,12546,1243,-1247,0
T,2760,57713,-58643,-2638,452,1278,16494,1253,-1258,0
T,2780,58229,-59168,-2636,1594,117,8820,1264,-1269,0
T,2800,58741,-59688,-2579,-4192,4617,8211,1274,-1280,0
T,2820,59247,-60202,-2576,-81,2392,5909,1285,-1291,0
T,2840,59749,-60712,-2534,-910,1096,7657,1295,-1302,0
T,2860,60246,-61217,-2519,103,4831,12689,1305,-1314,0
T,2880,60746,-61725,-2546,-2493,5899,10342,1315,-1324,0
T,2900,61248,-62234,-2554,703,-972,5307,1325,-1334,0
T,2920,61748,-62743,-2552,-1483,5039,8137,1336,-1344,0
T,2940,62250,-63253,-2577,-2884,1434,6838,1346,-1354,0
T,2960,62755,-63766,-2568,475,3341,8101,1358,-1364,0
T,2980,63259,-64278,-2554,-713,1108,13055,1369,-1374,0
T,3000,63764,-64791,-2597,-1990,7200,18906,1380,-1384,0
T,3020,64272,-65308,-2584,-1116,3283,10232,1391,-1394,0
T,3040,64778,-65822,-2574,-1554,5161,11025,1401,-1405,0
T,3060,65282,-66333,-2578,-1315,4493,10459,1411,-1416,0
T,3080,65785,-66845,-2565,-204,1391,12333,1422,-1427,0
T,3100,66286,-67384,-2543,-289,3619,14987,1432,-1439,0
T,3120,66813,-67889,-2527,-763,2282,3941,1442,-1450,0
T,3140,67309,-68394,-2529,-609,1784,4732,1452,-1461,0
T,3160,67806,-68898,-2535,966,-2970,6786,1462,-1472,0
T,3180,68299,-69399,-2518,-379,3590,11392,1474,-1483,0
T,3200,68793,-69902,-2518,-14,3654,14125,1485,-1493,0
T,3220,69285,-70401,-2476,-1521,4445,13174,1496,-1503,0
T,3240,69768,-70892,-2446,1276,-450,8813,1506,-1512,0
T,3260,70253,-71385,-2495,504,1331,12907,1517,-1521,0
T,3280,70741,-71881,-2489,987,-2153,6989,1527,-1531,0
T,3300,71229,-72377,-2483,-808,2119,8921,1537,-1540,0
T,3320,71720,-72876,-2506,1049,1872,7160,1548,-1550,0
T,3340,72213,-73377,-2515,857,4088,12338,1559,-1561,0
T,3360,72705,-73876,-2488,1364,2598,9398,1570,-1571,0
T,3380,73196,-74376,-2506,-130,2198,8949,1580,-1581,0
T,3400,73688,-74875,-2504,897,3887,13855,1591,-1592,0
T,3420,74180,-75375,-2482,231,2311,2838,1601,-1603,0
T,3440,74674,-75877,-2528,622,3161,10461,1611,-1614,0
T,3460,75168,-76379,-2497,-661,732,10435,1621,-1625,0
T,3480,75658,-76877,-2489,608,-184,9768,1632,-1635,0
T,3500,76142,-77369,-2469,-564,2071,5460,1644,-1647,0
T,3520,76628,-77863,-2467,1866,-508,5386,1655,-1658,0
T,3540,77107,-78350,-2432,-1713,5662,11915,1665,-1669,0
T,3560,77584,-78863,-2435,-168,275,8075,1675,-1680,0
T,3580,78093,-79351,-2461,2101,3408,10081,1685,-1690,0
T,3600,78577,-79843,-2474,2091,-1557,3848,1695,-1700,0
T,3620,79066,-80340,-2500,-908,4840,10798,1706,-1710,0
T,3640,79558,-80839,-2538,-1166,1470,14416,1717,-1720,0
T,3660,80050,-81340,-2497,-744,2553,7149,1729,-1731,0
T,3680,80543,-81841,-2511,-794,5559,13757,1739,-1742,0
T,3700,81040,-82346,-2542,-159,1424,9202,1751,-1750,0
T,3720,81538,-82852,-2540,-107,394,10595,1761,-1761,0
T,3740,82038,-83360,-2563,1795,-948,3330,1771,-1772,0
T,3760,82544,-83873,-2588,-1723,586,2960,1782,-1784,0
T,3780,83051,-84389,-2586,-917,4569,5286,1793,-1795,0
T,3800,83558,-84904,-2582,-2761,4622,14318,1803,-1807,0
T,3820,84068,-85422,-2591,-2073,2668,4949,1813,-1819,0
T,3840,84578,-85941,-2603,-538,493,9532,1824,-1831,0
T,3860,85088,-86459,-2594,-1351,641,6879,1836,-1842,0
T,3880,85602,-86981,-2609,-536,2598,6160,1847,-1852,0
T,3900,86116,-87504,-2608,328,-1207,7779,1858,-1862,0
T,3920,86627,-88022,-2582,423,-728,77,1869,-1872,0
T,3940,87136,-88540,-2595,255,-759,2038,1879,-1881,0
T,3960,87647,-89059,-2595,-251,3726,6134,1889,-1891,0
T,3980,88158,-89579,-2625,1023,1616,13045,1900,-1901,0
T,4000,88674,-90133,-2634,1366,1959,9697,1911,-1912,0
T,4020,89219,-90656,-2597,-1393,2272,6052,1922,-1922,0
T,4040,89728,-91173,-2597,1463,-1212,10671,1933,-1933,0
T,4060,90238,-91692,-2595,-251,-98,4187,1943,-1944,0
T,4080,90748,-92210,-2594,-846,3092,13611,1954,-1954,0
T,4100,91257,-92728,-2599,-12,-163,7251,1964,-1965,0
T,4120,91770,-93249,-2616,-1602,1221,13652,1974,-1976,0
T,4140,92284,-93770,-2598,-694,5202,9506,1985,-1987,0
T,4160,92794,-94289,-2609,-386,1937,9026,1995,-1999,0
T,4180,93305,-94808,-2612,32,-220,14831,2006,-2010,0
T,4200,93815,-95327,-2592,1691,-687,5216,2016,-2021,0
T,4220,94320,-95839,-2548,-1289,5065,14036,2026,-2032,0
T,4240,94820,-96348,-2567,1504,3791,21253,2036,-2043,0
T,4260,95321,-96856,-2563,1236,2162,9291,2046,-2053,0
T,4280,95822,-97366,-2550,-2794,5247,14812,2057,-2063,0
T,4300,96327,-97879,-2578,-185,3003,7077,2067,-2073,0
T,4320,96838,-98398,-2606,819,2505,11323,2078,-2083,0
T,4340,97348,-98917,-2600,888,-1986,13819,2089,-2093,0
T,4360,97858,-99435,-2594,-2104,1681,5503,2100,-2105,0
T,4380,98369,-99954,-2568,-4497,2933,7609,2111,-2113,0
T,4400,98873,-100466,-2544,2899,-1679,5453,2121,-2123,0
T,4420,99375,-100976,-2555,-680,-591,6294,2131,-2134,0
T,4440,99878,-101488,-2554,2575,-1073,6169,2142,-2145,0
T,4460,100408,-102025,-2538,2838,-127,6551,2152,-2157,0
T,4480,100905,-102531,-2552,-2325,205,9057,2161,-2168,0
T,4500,101404,-103037,-2557,2146,938,10435,2171,-2179,0
T,4520,101903,-103545,-2534,-1047,3398,16073,2182,-2190,0
T,4540,102400,-104050,-2510,1416,3640,13599,2192,-2201,0
T,4560,102895,-104552,-2511,-1505,744,8455,2203,-2211,0
T,4580,103389,-105054,-2483,-2514,691,6033,2214,-2220,0
T,4600,103875,-105549,-2471,-55,2658,12670,2225,-2229,0
T,4620,104359,-106041,-2464,1271,-939,7920,2235,-2238,0
T,4640,104846,-106535,-2482,-1599,-57,9991,2245,-2248,0
T,4660,105333,-107030,-2496,-725,6721,17745,2255,-2258,0
T,4680,105821,-107526,-2484,-1038,1602,10289,2266,-2267,0
T,4700,106312,-108025,-2484,-1730,7688,12200,2277,-2278,0
T,4720,106804,-108525,-2506,2006,2471,8780,2288,-2288,0
T,4740,107296,-109024,-2486,1537,-84,5470,2298,-2298,0
T,4760,107788,-109525,-2517,1459,5300,11930,2308,-2309,0
T,4780,108282,-110027,-2508,-2076,5887,10048,2318,-2319,0
T,4800,108778,-110530,-2524,-775,1705,8952,2328,-2330,0
T,4820,109276,-111037,-2541,786,830,8376,2339,-2341,0
T,4840,109772,-111541,-2502,-2064,275,12861,2349,-2352,0
T,4860,110265,-112041,-2502,1880,2124,11896,2360,-2364,0
T,4880,110757,-112541,-2502,1724,-793,11966,2371,-2375,0
T,4900,111245,-113066,-2467,1613,2694,11065,2381,-2386,0
T,4920,111758,-113558,-2486,1904,1729,12644,2391,-2396,0
T,4940,112246,-114054,-2483,3548,-2544,4414,2401,-2407,0
T,4960,112733,-114550,-2488,1634,859,8787,2411,-2417,0
T,4980,113219,-115043,-2474,883,1872,8207,2422,-2426,0
T,5000,113706,-115538,-2486,-782,792,12130,2433,-2437,0
T,5020,114193,-116033,-2486,-1874,2306,17736,2443,-2447,0
T,5040,114679,-116527,-2506,-256,-1351,12548,2455,-2456,0
T,5060,115169,-117025,-2515,1027,1789,10397,2465,-2466,0
T,5080,115658,-117521,-2480,-1960,2102,5431,2476,-2477,0
T,5100,116147,-118019,-2497,-3659,4421,12376,2486,-2486,0
T,5120,116641,-118521,-2540,3439,-311,10633,2497,-2498,0
T,5140,117138,-119026,-2522,-137,1008,3461,2507,-2509,0
T,5160,117633,-119528,-2529,1878,-956,8837,2517,-2521,0
T,5180,118130,-120033,-2557,-964,-1550,433,2527,-2532,0
T,5200,118635,-120546,-2593,-287,1403,10800,2538,-2543,0
T,5220,119143,-121062,-2577,416,2574,15861,2549,-2555,0
T,5240,119649,-121577,-2585,-1088,3178,8004,2560,-2566,0
T,5260,120157,-122093,-2584,1049,1733,6645,2572,-2576,0
T,5280,120662,-122606,-2578,-2391,1563,11230,2582,-2586,0
T,5300,121170,-123122,-2615,-1789,2977,8218,2593,-2596,0
T,5320,121680,-123640,-2604,-889,646,9725,2603,-2605,0
T,5340,122190,-124188,-2588,-142,2687,6824,2613,-2615,0
T,5360,122730,-124707,-2619,-74,521,12068,2624,-2625,0
T,5380,123246,-125231,-2625,449,2035,14612,2635,-2636,0
T,5400,123759,-125753,-2597,286,2780,14631,2647,-2646,0
T,5420,124270,-126272,-2602,1589,2725,14277,2657,-2657,0
T,5440,124780,-126791,-2592,274,160,10026,2667,-2667,0
T,5460,125288,-127307,-2591,921,1812,12816,2677,-2678,0
T,5480,125799,-127825,-2612,-832,3216,16119,2687,-2690,0
T,5500,126311,-128346,-2608,992,224,6540,2698,-2700,0
T,5520,126819,-128863,-2579,1454,1324,5123,2709,-2711,0
T,5540,127322,-129373,-2558,-1216,1511,5541,2719,-2723,0
T,5560,127825,-129884,-2565,-322,1805,8655,2729,-2734,0
T,5580,128326,-130394,-2538,-1012,2505,12639,2739,-2745,0
T,5600,128823,-130899,-2534,1198,320,6802,2750,-2756,0
T,5620,129322,-131406,-2569,2840,1681,10081,2759,-2766,0
T,5640,129821,-131912,-2538,1354,3274,11299,2769,-2776,0
T,5660,130318,-132417,-2526,1302,1903,11603,2780,-2786,0
T,5680,130816,-132924,-2550,-92,888,16236,2790,-2796,0
T,5700,131319,-133434,-2570,-246,-1013,7215,2801,-2806,0
T,5720,131820,-133943,-2541,-763,1906,8261,2812,-2815,0
T,5740,132323,-134454,-2568,-405,2131,5009,2823,-2825,0
T,5760,132827,-134967,-2559,-2007,224,3129,2833,-2836,0
T,5780,133329,-135477,-2577,2058,-184,8073,2844,-2846,0
T,5800,133831,-136017,-2551,-5777,5947,8087,2854,-2857,0
T,5820,134363,-136527,-2528,-1668,5262,9198,2865,-2868,0
T,5840,134864,-137037,-2559,153,-1480,4923,2875,-2880,0
T,5860,135364,-137545,-2550,1255,483,8990,2885,-2891,0
T,5880,135866,-138055,-2550,-2834,5386,16100,2895,-2902,0
T,5900,136367,-138564,-2548,80,-2366,8892,2905,-2914,0
T,5920,136868,-139073,-2543,-1116,3329,4877,2916,-2924,0
T,5940,137373,-139586,-2571,1447,-74,5247,2927,-2934,0
T,5960,137871,-140092,-2511,3146,859,8844,2938,-2944,0
T,5980,138362,-140591,-2491,-531,-965,6590,2948,-2954,0
T,6000,138855,-141092,-2523,-40,2284,13358,2959,-2963,0
T,6020,139348,-141593,-2512,1504,2591,14542,2969,-2972,0
T,6040,139841,-142094,-2518,1691,2682,13093,2979,-2982,0
T,6060,140335,-142596,-2506,487,4598,8615,2990,-2992,0
T,6080,140831,-143100,-2511,151,-462,8211,3001,-3002,0
T,6100,141322,-143599,-2508,707,2325,13690,3012,-3012,0
T,6120,141814,-144099,-2504,-3275,1161,8734,3022,-3022,0
T,6140,142309,-144602,-2531,-254,394,11278,3032,-3033,0
T,6160,142807,-145108,-2545,345,1573,9453,3042,-3043,0
T,6180,143307,-145616,-2552,-1526,866,11636,3052,-3055,0
T,6200,143809,-146126,-2559,518,2342,8558,3062,-3066,0
T,6220,144307,-146632,-2529,-1535,-558,8701,3073,-3076,0
T,6240,144803,-147166,-2536,-521,2586,12305,3084,-3087,0
T,6260,145327,-147668,-2504,570,1468,7172,3094,-3099,0
T,6280,145815,-148164,-2467,-175,4153,10523,3104,-3109,0
T,6300,146298,-148655,-2452,1380,1800,9637,3114,-3120,0
T,6320,146780,-149145,-2426,997,2878,3934,3124,-3130,0
T,6340,147265,-149637,-2492,345,718,8242,3135,-3140,0
T,6360,147754,-150135,-2520,-446,-2134,9417,3146,-3150,0
T,6380,148246,-150634,-2511,587,2921,12524,3157,-3160,0
T,6400,148735,-151132,-2492,2686,-366,9928,3167,-3170,0
T,6420,149226,-151630,-2519,2148,-697,10332,3179,-3181,0
T,6440,149723,-152135,-2550,1541,842,14194,3191,-3189,0
T,6460,150222,-152643,-2554,4283,-649,5558,3202,-3200,0
T,6480,150722,-153150,-2557,-972,840,9838,3212,-3211,0
T,6500,151225,-153661,-2570,-974,2105,6807,3223,-3222,0
T,6520,151728,-154173,-2557,-3317,2821,6358,3233,-3233,0
T,6540,152232,-154685,-2570,-303,3516,11149,3243,-3244,0
T,6560,152737,-155198,-2583,-431,1717,11428,3253,-3255,0
T,6580,153245,-155713,-2587,-2045,2498,13016,3263,-3267,0
T,6600,153751,-156229,-2595,-827,3887,11650,3274,-3278,0
T,6620,154261,-156746,-2603,-1950,4026,10349,3285,-3289,0
T,6640,154770,-157264,-2575,257,2236,9279,3296,-3298,0
T,6660,155273,-157775,-2540,-2569,4898,11822,3307,-3308,0
T,6680,155775,-158285,-2562,248,1683,11125,3318,-3317,0
T,6700,156307,-158826,-2540,27,2778,8335,3328,-3327,0
T,6720,156810,-159336,-2558,-1116,2256,11457,3338,-3337,0
T,6740,157312,-159847,-2554,-258,3338,5856,3349,-3347,0
T,6760,157815,-160358,-2566,1387,1319,10053,3360,-3357,0
T,6780,158317,-160868,-2548,1487,555,8481,3370,-3367,0
T,6800,158818,-161376,-2547,-88,605,8166,3381,-3377,0
T,6820,159318,-161885,-2552,999,-433,10279,3391,-3388,0
T,6840,159817,-162392,-2540,1314,267,9823,3401,-3398,0
T,6860,160317,-162900,-2569,2184,2847,10709,3411,-3409,0
T,6880,160819,-163410,-2566,1783,632,12990,3421,-3420,0
T,6900,161318,-163917,-2540,2409,1947,11829,3431,-3431,0
T,6920,161815,-164422,-2544,1655,471,10915,3442,-3442,0
T,6940,162312,-164927,-2531,-1815,1645,9620,3453,-3453,0
T,6960,162807,-165430,-2513,-28,1041,9312,3463,-3465,0
T,6980,163302,-165933,-2527,-1969,3968,9104,3473,-3475,0
T,7000,163800,-166439,-2545,-301,3446,10377,3482,-3486,0
T,7020,164302,-166949,-2573,582,-994,11906,3493,-3496,0
T,7040,164805,-167460,-2571,53,4102,13640,3503,-3506,0
T,7060,165310,-167973,-2578,447,2773,15906,3514,-3516,0
T,7080,165816,-168487,-2568,-2201,2042,4803,3524,-3526,0
T,7100,166321,-169001,-2593,-905,3781,7832,3536,-3536,0
T,7120,166832,-169519,-2620,-438,4531,21444,3547,-3546,0
T,7140,167342,-170069,-2592,904,663,10862,3557,-3557,0
T,7160,167881,-170586,-2608,2402,1628,13110,3567,-3566,0
T,7180,168392,-171105,-2592,-431,-960,13998,3578,-3578,0
T,7200,168902,-171623,-2595,989,1719,9938,3588,-3589,0
T,7220,169409,-172138,-2573,1087,-72,6181,3598,-3601,0
T,7240,169912,-172649,-2573,-1327,-2120,4428,3607,-3612,0
T,7260,170412,-173158,-2549,-1374,3408,6442,3617,-3623,0
T,7280,170907,-173661,-2490,-1204,1159,7619,3627,-3634,0
T,7300,171395,-174157,-2490,1414,840,8324,3637,-3643,0
T,7320,171877,-174646,-2426,2231,3269,16176,3647,-3652,0
T,7340,172344,-175121,-2348,3089,-975,6893,3656,-3661,0
T,7360,172795,-175579,-2264,-919,4330,13941,3665,-3668,0
T,7380,173231,-176022,-2206,715,-1310,9415,3674,-3676,0
T,7400,173656,-176454,-2122,-727,3333,7340,3682,-3684,0
T,7420,174067,-176871,-2034,613,2941,8278,3689,-3691,0
T,7440,174463,-177274,-2004,1854,-330,10057,3696,-3698,0
T,7460,174850,-177667,-1941,1802,-2314,7483,3703,-3705,0
T,7480,175223,-178046,-1849,-1227,4495,9188,3710,-3711,0
T,7500,175579,-178408,-1778,686,1535,9991,3717,-3720,0
T,7520,175919,-178754,-1710,1587,634,10974,3724,-3725,0
T,7540,176247,-179086,-1635,260,1604,14170,3730,-3731,0
T,7560,176559,-179422,-1556,2314,-1547,3772,3736,-3737,0
T,7580,176857,-179724,-1482,-119,914,11951,3742,-3744,0
T,7600,177157,-180011,-1408,-223,3784,10408,3747,-3748,0
T,7620,177430,-180288,-1364,-372,370,8386,3753,-3753,0
T,7640,177691,-180553,-1291,1942,-69,8858,3757,-3759,0
T,7660,177938,-180805,-1231,165,2378,10158,3763,-3762,0
T,7680,178171,-181042,-1154,440,-505,9319,3767,-3767,0
T,7700,178392,-181266,-1094,859,471,6907,3771,-3771,0
T,7720,178600,-181477,-1017,-389,1106,11297,3775,-3775,0
T,7740,178793,-181674,-950,710,1865,8698,3779,-3779,0
T,7760,178974,-181857,-888,568,-160,10468,3782,-3782,0
T,7780,179141,-182027,-819,1122,-711,9147,3785,-3785,0
T,7800,179291,-182179,-714,662,49,9764,3788,-3788,0
T,7820,179421,-182311,-623,712,691,8773,3791,-3790,0
T,7840,179535,-182428,-553,319,-62,9038,3793,-3792,0
T,7860,179636,-182530,-472,65,902,8964,3795,-3793,0
T,7880,179721,-182617,-401,1004,450,9809,3797,-3795,0
T,7900,179791,-182688,-325,888,107,9073,3799,-3796,0
T,7920,179847,-182745,-253,-33,28,9716,3800,-3798,0
T,7940,179892,-182790,-190,641,687,9463,3801,-3798,0
T,7960,179919,-182818,-94,1037,0,9795,3802,-3798,0
T,7980,179927,-182826,12,826,-122,9642,3802,-3799,0
T,8000,179924,-182823,-3,-668,73,9862,3802,-3799,0
# 記録の数: 401 / 間隔: 20 ms
# 止まった時 rotation Z: -1828.25 / モーター 左/右: 3802 -3799 度
# 命令: 1800 度 / 止まった時のジャイロ h1: 1799.26 度
# 定規に合わせ直した時のジャイロ h2: 1772.84 度
# 本当のズレ（＋は回り足りない）: -26.42 度（ジャイロの目盛りで）
# モーターで回ったときのジャイロの 1 周の読み: 354.568 度（360 なら目盛りは合っている）
# 電池: 7852 mV

==================================================
終了コード: 0
終了日時  : 2026-09-19 11:16:59
実行時間  : 29.6 秒
