=== 実行ログ ===
スクリプト: run_gyro_state_trace.py
実行日時 : 2026-09-19 11:18:08
ハブ     : --name Pybricks Hub3
==================================================

Searching for Pybricks Hub3...

  0%|          | 0.00/7.45k [00:00<?, ?B/s]
 14%|█▎        | 1.01k/7.45k [00:00<00:00, 9.66kB/s]
 27%|██▋       | 2.03k/7.45k [00:00<00:00, 9.42kB/s]
 41%|████      | 3.04k/7.45k [00:00<00:00, 9.34kB/s]
 54%|█████▍    | 4.06k/7.45k [00:00<00:00, 8.83kB/s]
 68%|██████▊   | 5.07k/7.45k [00:00<00:00, 9.00kB/s]
 82%|████████▏ | 6.08k/7.45k [00:00<00:00, 7.75kB/s]
 95%|█████████▌| 7.10k/7.45k [00:00<00:00, 6.26kB/s]
100%|██████████| 7.45k/7.45k [00:01<00:00, 5.93kB/s]
=== ロボット初期化開始 ===
★ 走行設定: new （new＝今年の値 / old＝昨年の速度・加速度・PID）
✓ 機体の校正表: Pybricks Hub3 {'heading_correction': 365.8, 'wheel': 62.32, 'axle': 114.48}
✓ ハブ設定完了
✓ モーター設定完了
✓ デフォルト設定適用: 直進={'straight_acceleration': 800, 'straight_speed': 550}, 回転={'turn_acceleration': 313, 'turn_rate': 250}
✓ ロボットパラメータ設定完了
✓ PID制御設定完了（Pybricks の既定値を使用）
✓ センサー初期化完了
✓ モーター角度リセット完了: 全モーター=0°
=== ロボット初期化完了 ===
# imu.settings: (2.0, 2500.0, (0.107595, -1.197198, -0.486059), (366.1989, 351.5872, 362.0139), (10031.61, -9781.568, 9785.638, -9813.727, 9523.833, -10133.98), 365.8)
# 前: tilt (-0.2213324, 0.2316467) / 角速度 Matrix([
    [   0.044],
    [  -0.170],
    [   0.050],
])
# ★いま★ ライトが緑になったら（ピーと鳴ったら）、手で定規にぴったり当て直して、手を離してね
# 列: T,ms,heading*100,rotZ*100,wz*10,ax,ay,az,left,right,stationary
T,1,0,0,0,65,30,9802,0,0,1
T,20,0,0,0,108,2,9838,0,0,0
T,40,0,0,-3,-21,145,9840,0,0,0
T,60,0,0,2,165,-26,9807,0,0,0
T,80,0,0,0,-62,83,9811,0,0,0
T,100,0,0,1,129,90,9814,0,0,0
T,120,0,0,-1,-19,-55,9811,0,0,0
T,140,0,0,1,98,42,9804,0,0,0
T,160,0,0,0,-26,95,9823,0,0,0
T,180,0,0,-2,-175,-187,10022,0,0,0
T,200,6,-6,-63,-770,-984,9420,0,0,0
T,220,35,-36,-216,-1412,-522,10788,0,-2,0
T,240,86,-87,-306,-474,1930,9217,2,-3,0
T,260,162,-165,-453,-1552,71,9269,4,-6,0
T,280,265,-269,-566,-1408,1513,10850,6,-9,0
T,300,385,-391,-646,-1434,-148,9035,9,-12,0
T,320,525,-533,-767,-1588,608,10251,13,-15,0
T,340,694,-705,-927,-1249,-891,9155,18,-20,0
T,360,894,-908,-1070,-1329,562,9284,23,-24,0
T,380,1117,-1135,-1164,-2263,2205,12918,29,-30,0
T,400,1361,-1383,-1285,-943,-1111,9291,35,-36,0
T,420,1628,-1654,-1380,-877,1156,7812,42,-42,0
T,440,1910,-1941,-1449,-2277,2481,13212,48,-49,0
T,460,2204,-2239,-1496,-491,-2307,7502,53,-56,0
T,480,2507,-2547,-1549,-1377,1987,10802,60,-63,0
T,500,2822,-2867,-1604,1158,1805,10848,66,-70,0
T,520,3148,-3199,-1671,-1268,1611,11471,73,-77,0
T,540,3485,-3541,-1712,821,-1442,7340,81,-84,0
T,560,3852,-3914,-1768,494,-311,9685,88,-92,0
T,580,4206,-4274,-1805,-268,2407,11366,97,-99,0
T,600,4566,-4639,-1811,-1780,720,8061,105,-108,0
T,620,4933,-5012,-1860,56,438,8252,113,-117,0
T,640,5308,-5393,-1892,-355,4414,16446,121,-125,0
T,660,5685,-5777,-1906,-1199,3127,11438,128,-134,0
T,680,6071,-6169,-1970,-2320,4107,14476,137,-143,0
T,700,6471,-6575,-2049,309,687,11488,146,-153,0
T,720,6880,-6991,-2066,423,-421,7595,155,-162,0
T,740,7298,-7415,-2126,1072,-1317,9303,165,-171,0
T,760,7727,-7852,-2197,1011,-1317,8137,174,-181,0
T,780,8170,-8301,-2250,-590,1757,6544,185,-190,0
T,800,8624,-8763,-2296,-628,-2333,9042,196,-200,0
T,820,9091,-9237,-2378,1079,1012,6783,208,-211,0
T,840,9571,-9725,-2451,1200,442,19214,219,-221,0
T,860,10056,-10218,-2428,658,-2445,5305,229,-232,0
T,880,10545,-10715,-2478,-159,2191,8801,240,-242,0
T,900,11042,-11220,-2520,1461,2047,17119,251,-253,0
T,920,11544,-11730,-2521,-697,854,11841,261,-265,0
T,940,12051,-12246,-2559,-1986,897,9040,271,-277,0
T,960,12562,-12764,-2568,-10,-318,8092,282,-289,0
T,980,13074,-13285,-2579,1151,1808,3955,293,-300,0
T,1000,13589,-13839,-2569,-209,2821,4032,304,-313,0
T,1020,14135,-14363,-2588,-2135,3837,11600,316,-325,0
T,1040,14650,-14886,-2571,-761,2256,9797,327,-337,0
T,1060,15163,-15407,-2568,-2325,2464,12159,338,-347,0
T,1080,15673,-15925,-2547,-1097,2672,10260,349,-358,0
T,1100,16177,-16438,-2531,587,414,9637,359,-368,0
T,1120,16680,-16949,-2524,-528,2062,7115,369,-377,0
T,1140,17187,-17464,-2561,-1294,1276,7846,381,-387,0
T,1160,17699,-17984,-2584,2347,732,14261,392,-397,0
T,1180,18212,-18506,-2605,3563,-438,15503,403,-407,0
T,1200,18723,-19025,-2558,-495,1657,10050,413,-417,0
T,1220,19230,-19540,-2545,1752,1300,11791,424,-428,0
T,1240,19735,-20053,-2540,350,2136,3528,435,-439,0
T,1260,20243,-20569,-2575,1387,897,16315,445,-449,0
T,1280,20753,-21087,-2563,549,-148,5221,455,-460,0
T,1300,21265,-21608,-2579,-1033,2787,16083,466,-472,0
T,1320,21777,-22127,-2574,91,1135,7359,477,-483,0
T,1340,22288,-22647,-2578,442,965,9651,487,-493,0
T,1360,22799,-23166,-2569,340,3714,9510,497,-505,0
T,1380,23309,-23685,-2578,-815,3935,13243,508,-516,0
T,1400,23815,-24229,-2533,-514,1106,9971,517,-527,0
T,1420,24317,-24709,-2509,-405,3724,6091,528,-537,0
T,1440,24821,-25221,-2552,1094,-108,6308,539,-547,0
T,1460,25359,-25768,-2558,-571,3791,9594,549,-557,0
T,1480,25872,-26289,-2578,-1145,313,6630,560,-567,0
T,1500,26389,-26815,-2609,-1578,4802,13836,571,-577,0
T,1520,26908,-27342,-2603,1672,332,3540,582,-586,0
T,1540,27426,-27868,-2595,397,-21,4254,593,-599,0
T,1560,27941,-28392,-2551,-2396,10395,20453,603,-607,0
T,1580,28453,-28911,-2581,-1372,-352,8653,614,-617,0
T,1600,28966,-29432,-2577,2999,-515,9205,623,-629,0
T,1620,29476,-29951,-2560,2399,1477,7655,633,-639,0
T,1640,29983,-30466,-2538,-1336,6280,8058,643,-651,0
T,1660,30488,-30979,-2538,802,217,8648,653,-661,0
T,1680,30992,-31491,-2541,492,2129,16651,663,-672,0
T,1700,31496,-32003,-2528,463,1226,9878,674,-683,0
T,1720,31997,-32513,-2520,999,-2081,5279,685,-694,0
T,1740,32495,-33018,-2499,-1704,2670,5651,695,-704,0
T,1760,32990,-33521,-2499,-251,5089,18340,706,-713,0
T,1780,33480,-34020,-2458,-735,2636,9995,716,-723,0
T,1800,33966,-34513,-2439,-1071,6618,17021,726,-731,0
T,1820,34452,-35007,-2453,447,1197,9439,737,-740,0
T,1840,34942,-35505,-2478,-3168,3242,15870,747,-750,0
T,1860,35434,-36005,-2480,-453,3036,13991,758,-760,0
T,1880,35926,-36535,-2470,-384,4153,12491,768,-769,0
T,1900,36419,-37035,-2491,1283,-211,5178,778,-780,0
T,1920,36940,-37535,-2475,-879,3707,15333,788,-789,0
T,1940,37433,-38036,-2491,2390,-2333,5897,798,-800,0
T,1960,37928,-38539,-2488,-2630,6129,14578,808,-810,0
T,1980,38422,-39041,-2483,-135,3827,17277,819,-821,0
T,2000,38918,-39545,-2490,-358,1441,11235,829,-831,0
T,2020,39413,-40048,-2487,-2152,4696,10435,840,-843,0
T,2040,39903,-40546,-2454,769,1163,13907,850,-853,0
T,2060,40391,-41042,-2449,520,1283,9317,859,-864,0
T,2080,40877,-41536,-2437,1146,-1909,5737,869,-875,0
T,2100,41362,-42028,-2459,-341,18,-316,879,-886,0
T,2120,41848,-42522,-2425,-3002,2299,7146,889,-896,0
T,2140,42333,-43015,-2436,30,2502,10478,900,-906,0
T,2160,42821,-43510,-2465,-1358,3127,11127,911,-916,0
T,2180,43310,-44008,-2453,-808,-2699,3626,922,-926,0
T,2200,43803,-44508,-2481,388,1343,7886,933,-935,0
T,2220,44296,-45010,-2482,641,2871,14698,943,-945,0
T,2240,44788,-45510,-2491,-59,3336,14378,954,-956,0
T,2260,45282,-46012,-2492,1283,-323,13699,964,-965,0
T,2280,45780,-46517,-2514,-457,3434,11517,974,-975,0
T,2300,46280,-47026,-2528,736,2371,11349,984,-986,0
T,2320,46784,-47568,-2536,-1059,2459,5637,994,-997,0
T,2340,47293,-48085,-2556,-578,3020,5126,1002,-1008,0
T,2360,47832,-48602,-2577,-1066,4831,11285,1012,-1019,0
T,2380,48343,-49121,-2584,1326,409,8522,1023,-1030,0
T,2400,48857,-49644,-2581,-1173,57,6716,1034,-1042,0
T,2420,49370,-50165,-2582,1366,-352,11020,1044,-1052,0
T,2440,49880,-50683,-2566,-957,4352,11347,1055,-1063,0
T,2460,50388,-51200,-2556,-1886,1599,6745,1066,-1073,0
T,2480,50895,-51715,-2538,-1033,-156,7801,1075,-1082,0
T,2500,51399,-52227,-2529,-998,2198,5202,1086,-1092,0
T,2520,51906,-52742,-2555,-225,-31,6614,1097,-1101,0
T,2540,52415,-53260,-2550,198,1927,14003,1108,-1111,0
T,2560,52921,-53774,-2544,-1270,4799,12871,1118,-1121,0
T,2580,53428,-54289,-2545,-723,2349,10502,1128,-1132,0
T,2600,53935,-54804,-2545,-24,3580,10373,1139,-1142,0
T,2620,54438,-55315,-2529,-1410,3779,13520,1151,-1152,0
T,2640,54939,-55824,-2524,1129,1295,11247,1158,-1163,0
T,2660,55442,-56335,-2552,968,234,12575,1168,-1173,0
T,2680,55947,-56849,-2551,1162,193,13664,1179,-1184,0
T,2700,56454,-57363,-2547,-438,1194,13133,1190,-1195,0
T,2720,56961,-57878,-2527,-322,1868,9830,1200,-1206,0
T,2740,57465,-58390,-2535,1366,-714,7342,1209,-1217,0
T,2760,57967,-58901,-2543,3084,-685,7803,1219,-1227,0
T,2780,58472,-59414,-2540,1786,-218,8338,1229,-1238,0
T,2800,58977,-59957,-2532,523,3173,9950,1239,-1249,0
T,2820,59510,-60469,-2518,989,3542,9370,1249,-1258,0
T,2840,60012,-60979,-2532,-175,-457,9878,1260,-1269,0
T,2860,60515,-61490,-2533,-538,2335,6024,1270,-1278,0
T,2880,61020,-62003,-2532,-2384,3779,6969,1281,-1288,0
T,2900,61529,-62520,-2587,-704,579,7595,1291,-1298,0
T,2920,62040,-63040,-2571,-379,3377,11739,1302,-1306,0
T,2940,62549,-63556,-2536,1696,-2160,9472,1312,-1319,0
T,2960,63056,-64072,-2602,-1355,14668,18199,1322,-1327,0
T,2980,63563,-64587,-2530,2442,-7897,7516,1333,-1337,0
T,3000,64066,-65098,-2522,-2839,-2330,15022,1342,-1348,0
T,3020,64566,-65606,-2540,1060,3978,23654,1351,-1359,0
T,3040,65066,-66115,-2510,707,2210,8966,1361,-1370,0
T,3060,65568,-66624,-2518,2544,-146,6294,1371,-1381,0
T,3080,66068,-67133,-2510,84,1027,6442,1381,-1392,0
T,3100,66569,-67641,-2521,-2322,3190,9742,1392,-1403,0
T,3120,67067,-68147,-2505,200,2727,11304,1403,-1413,0
T,3140,67564,-68652,-2502,-71,2874,12536,1413,-1424,0
T,3160,68057,-69154,-2467,-2114,2591,12238,1424,-1433,0
T,3180,68547,-69651,-2445,-2109,5566,16119,1433,-1442,0
T,3200,69030,-70143,-2428,158,835,8694,1443,-1451,0
T,3220,69516,-70635,-2460,-512,3156,14115,1454,-1460,0
T,3240,70004,-71161,-2483,1812,2457,12317,1464,-1470,0
T,3260,70525,-71662,-2471,-2507,2704,9336,1475,-1480,0
T,3280,71015,-72159,-2459,-313,526,11435,1486,-1489,0
T,3300,71502,-72654,-2454,-1256,3183,8701,1496,-1499,0
T,3320,71987,-73147,-2449,1489,-2354,7251,1505,-1509,0
T,3340,72476,-73644,-2460,-429,6289,16341,1515,-1520,0
T,3360,72966,-74141,-2469,-633,-1964,5575,1525,-1529,0
T,3380,73457,-74641,-2470,-1211,5276,9783,1535,-1540,0
T,3400,73951,-75143,-2491,686,924,13004,1546,-1551,0
T,3420,74445,-75644,-2463,-1227,2701,7719,1556,-1561,0
T,3440,74937,-76144,-2483,722,38,3065,1567,-1572,0
T,3460,75427,-76642,-2445,842,-1643,5522,1576,-1583,0
T,3480,75917,-77140,-2449,-1024,2483,4290,1586,-1595,0
T,3500,76404,-77635,-2430,1151,26,4385,1596,-1605,0
T,3520,76887,-78126,-2424,-1137,4217,11130,1606,-1615,0
T,3540,77370,-78616,-2447,-2481,2840,13217,1617,-1625,0
T,3560,77857,-79111,-2448,553,1882,6905,1627,-1635,0
T,3580,78344,-79606,-2438,77,-364,4101,1638,-1644,0
T,3600,78833,-80103,-2468,-744,1755,6871,1649,-1655,0
T,3620,79325,-80603,-2458,153,1824,7003,1660,-1664,0
T,3640,79817,-81103,-2464,-159,3444,11084,1670,-1675,0
T,3660,80308,-81602,-2479,1096,306,10709,1680,-1684,0
T,3680,80803,-82104,-2488,705,-1839,8741,1690,-1694,0
T,3700,81328,-82638,-2519,1850,-1071,13059,1700,-1705,0
T,3720,81826,-83144,-2508,-225,2639,8025,1710,-1716,0
T,3740,82328,-83654,-2538,-230,1130,11791,1720,-1727,0
T,3760,82832,-84167,-2540,-1275,3604,11689,1731,-1738,0
T,3780,83340,-84683,-2565,1499,-632,4297,1741,-1749,0
T,3800,83852,-85203,-2580,-45,737,6186,1752,-1761,0
T,3820,84366,-85725,-2589,-111,4177,17872,1763,-1772,0
T,3840,84878,-86246,-2594,-220,3384,14991,1774,-1782,0
T,3860,85391,-86766,-2581,-1967,624,9983,1784,-1792,0
T,3880,85900,-87283,-2543,-706,1487,6626,1794,-1802,0
T,3900,86402,-87794,-2544,992,150,9730,1804,-1811,0
T,3920,86906,-88307,-2541,-2604,3837,9121,1815,-1820,0
T,3940,87412,-88820,-2535,-3393,5108,7734,1825,-1830,0
T,3960,87919,-89335,-2558,698,2773,14870,1837,-1840,0
T,3980,88424,-89849,-2522,-1140,2560,6840,1847,-1850,0
T,4000,88928,-90361,-2531,-457,4095,16186,1857,-1860,0
T,4020,89429,-90870,-2513,-948,3657,8999,1867,-1870,0
T,4040,89931,-91380,-2520,203,2624,10430,1877,-1880,0
T,4060,90436,-91893,-2544,494,4668,10862,1887,-1891,0
T,4080,90941,-92407,-2538,473,1844,10332,1897,-1902,0
T,4100,91446,-92920,-2537,404,1951,12011,1908,-1913,0
T,4120,91952,-93463,-2522,-557,7453,11337,1918,-1923,0
T,4140,92455,-93975,-2526,973,754,6879,1928,-1934,0
T,4160,92987,-94485,-2513,-929,1815,10635,1938,-1945,0
T,4180,93489,-94996,-2520,1627,981,3912,1947,-1956,0
T,4200,93994,-95508,-2540,1051,1523,12503,1957,-1967,0
T,4220,94500,-96023,-2544,1226,-1890,7153,1967,-1976,0
T,4240,95010,-96541,-2561,-457,-718,11598,1978,-1987,0
T,4260,95519,-97058,-2550,8,2603,6473,1988,-1996,0
T,4280,96029,-97576,-2563,148,5621,18285,1999,-2006,0
T,4300,96540,-98095,-2555,-905,3032,7886,2010,-2016,0
T,4320,97051,-98615,-2575,741,-2745,7855,2021,-2025,0
T,4340,97559,-99131,-2544,629,1705,13401,2030,-2037,0
T,4360,98064,-99644,-2549,-1339,4325,17623,2040,-2046,0
T,4380,98570,-100158,-2550,-903,8735,33020,2051,-2056,0
T,4400,99076,-100672,-2551,2819,5669,10213,2060,-2067,0
T,4420,99579,-101183,-2458,4811,-7095,-5081,2069,-2078,0
T,4440,100078,-101691,-2497,2909,-3978,9124,2080,-2088,0
T,4460,100578,-102199,-2511,-645,2701,11595,2089,-2099,0
T,4480,101079,-102708,-2516,546,-2505,12763,2100,-2111,0
T,4500,101578,-103215,-2520,-562,1135,15834,2110,-2122,0
T,4520,102074,-103718,-2491,1312,394,8866,2121,-2132,0
T,4540,102567,-104220,-2491,1015,-268,4428,2131,-2142,0
T,4560,103059,-104719,-2456,307,615,12116,2141,-2152,0
T,4580,103546,-105215,-2442,1188,464,4185,2152,-2161,0
T,4600,104029,-105733,-2435,-1329,1779,13831,2162,-2170,0
T,4620,104542,-106227,-2451,-2419,3887,11462,2172,-2179,0
T,4640,105031,-106723,-2460,369,1171,17611,2183,-2188,0
T,4660,105519,-107219,-2441,2631,-53,7569,2193,-2197,0
T,4680,106007,-107715,-2472,452,1868,16678,2204,-2206,0
T,4700,106496,-108212,-2464,200,1954,20714,2214,-2216,0
T,4720,106984,-108708,-2464,-147,3326,10700,2224,-2227,0
T,4740,107472,-109203,-2461,-62,521,10664,2233,-2237,0
T,4760,107963,-109702,-2481,-1355,3307,6198,2243,-2247,0
T,4780,108460,-110208,-2508,2058,-223,7060,2253,-2257,0
T,4800,108962,-110718,-2518,-832,2996,4469,2263,-2268,0
T,4820,109466,-111230,-2545,-479,842,4287,2274,-2279,0
T,4840,109970,-111741,-2532,743,1063,12128,2285,-2290,0
T,4860,110468,-112248,-2506,-265,1729,10084,2294,-2301,0
T,4880,110965,-112753,-2492,-431,2792,10000,2305,-2312,0
T,4900,111459,-113255,-2467,2070,-529,5252,2313,-2323,0
T,4920,111950,-113754,-2461,-986,3183,7999,2323,-2333,0
T,4940,112440,-114251,-2474,-723,2280,17310,2334,-2343,0
T,4960,112931,-114750,-2474,331,-663,3640,2344,-2353,0
T,4980,113424,-115251,-2496,-2099,953,13709,2355,-2363,0
T,5000,113921,-115757,-2497,354,1781,7003,2367,-2373,0
T,5020,114417,-116260,-2475,537,-2417,7523,2377,-2382,0
T,5040,114907,-116788,-2455,-14,-352,3592,2387,-2393,0
T,5060,115425,-117285,-2472,1290,557,15034,2397,-2401,0
T,5080,115916,-117783,-2473,-604,5506,14922,2408,-2412,0
T,5100,116408,-118283,-2483,-983,1163,9869,2418,-2421,0
T,5120,116902,-118785,-2487,-21,3245,8952,2427,-2432,0
T,5140,117396,-119287,-2497,1160,2605,12407,2437,-2443,0
T,5160,117893,-119793,-2523,812,-429,6241,2447,-2454,0
T,5180,118393,-120301,-2519,-1408,1053,10566,2457,-2464,0
T,5200,118896,-120812,-2529,1312,2229,8448,2468,-2475,0
T,5220,119403,-121327,-2556,2103,929,11748,2480,-2486,0
T,5240,119907,-121839,-2521,-1945,4665,10585,2490,-2497,0
T,5260,120412,-122352,-2525,-339,3307,10585,2501,-2506,0
T,5280,120915,-122863,-2516,-1521,4071,9503,2511,-2517,0
T,5300,121414,-123370,-2501,-455,2739,10671,2521,-2525,0
T,5320,121911,-123875,-2497,1437,-1277,9382,2531,-2535,0
T,5340,122410,-124382,-2509,1518,665,10752,2542,-2544,0
T,5360,122910,-124891,-2531,-893,3930,17000,2553,-2554,0
T,5380,123411,-125400,-2527,-123,306,9699,2563,-2564,0
T,5400,123912,-125908,-2518,-1315,6050,10640,2573,-2574,0
T,5420,124411,-126416,-2501,1,-419,4820,2583,-2584,0
T,5440,124910,-126923,-2501,2750,2042,13516,2593,-2595,0
T,5460,125412,-127432,-2526,-678,2663,7378,2604,-2605,0
T,5480,125914,-127973,-2545,1425,215,9878,2613,-2615,0
T,5500,126449,-128486,-2543,-166,2289,7261,2623,-2626,0
T,5520,126953,-128999,-2540,712,1992,11359,2634,-2637,0
T,5540,127456,-129509,-2522,110,2299,7507,2644,-2648,0
T,5560,127957,-130019,-2523,-1758,1590,10234,2654,-2660,0
T,5580,128459,-130529,-2528,681,529,7927,2664,-2670,0
T,5600,128962,-131039,-2527,-289,2409,7769,2673,-2681,0
T,5620,129463,-131549,-2534,-246,2423,12742,2684,-2692,0
T,5640,129968,-132062,-2531,-822,3420,3294,2694,-2701,0
T,5660,130478,-132580,-2558,-2024,4464,12701,2705,-2711,0
T,5680,130988,-133099,-2542,-1500,2804,8842,2715,-2721,0
T,5700,131496,-133615,-2561,544,6261,10974,2727,-2731,0
T,5720,132005,-134131,-2544,-988,-263,6523,2737,-2741,0
T,5740,132513,-134648,-2536,-1223,1559,7817,2747,-2751,0
T,5760,133018,-135161,-2525,518,1108,11992,2757,-2760,0
T,5780,133525,-135677,-2549,-1509,3338,8584,2767,-2770,0
T,5800,134033,-136192,-2551,-1062,2047,11201,2778,-2780,0
T,5820,134539,-136706,-2540,2210,109,11111,2787,-2791,0
T,5840,135044,-137220,-2547,961,-1875,7555,2797,-2802,0
T,5860,135550,-137734,-2547,534,-232,12751,2807,-2814,0
T,5880,136056,-138248,-2545,1191,3726,7134,2817,-2824,0
T,5900,136563,-138763,-2539,1767,1127,14382,2827,-2835,0
T,5920,137071,-139279,-2535,2954,2433,12221,2838,-2846,0
T,5940,137576,-139822,-2532,191,881,6501,2848,-2857,0
T,5960,138108,-140333,-2529,686,452,15608,2859,-2866,0
T,5980,138608,-140841,-2495,-796,2955,11091,2869,-2876,0
T,6000,139100,-141341,-2440,-1422,7822,18048,2879,-2884,0
T,6020,139586,-141835,-2474,904,1048,11968,2889,-2893,0
T,6040,140077,-142333,-2463,935,1405,10970,2899,-2902,0
T,6060,140568,-142833,-2465,-661,2735,9630,2910,-2912,0
T,6080,141060,-143332,-2456,1698,337,10454,2920,-2922,0
T,6100,141547,-143828,-2449,2053,845,9073,2930,-2932,0
T,6120,142034,-144322,-2439,909,2299,12066,2940,-2942,0
T,6140,142520,-144816,-2435,869,596,4564,2950,-2952,0
T,6160,143007,-145311,-2461,-1000,4881,13656,2960,-2962,0
T,6180,143496,-145807,-2462,-97,-2029,6351,2970,-2972,0
T,6200,143987,-146307,-2484,741,5020,14614,2980,-2983,0
T,6220,144481,-146809,-2511,3473,-1698,9955,2991,-2993,0
T,6240,144977,-147313,-2468,-1251,4275,11278,3001,-3004,0
T,6260,145468,-147812,-2459,84,852,7098,3010,-3015,0
T,6280,145958,-148310,-2474,888,2129,13415,3020,-3025,0
T,6300,146448,-148808,-2460,279,-393,10112,3030,-3036,0
T,6320,146936,-149303,-2461,-33,2414,11514,3040,-3047,0
T,6340,147425,-149800,-2445,2421,131,10370,3050,-3057,0
T,6360,147916,-150299,-2488,-668,2991,10908,3060,-3067,0
T,6380,148408,-150829,-2464,-66,-273,4127,3071,-3076,0
T,6400,148929,-151329,-2483,2098,749,7836,3082,-3086,0
T,6420,149426,-151833,-2523,-2258,4775,10127,3093,-3096,0
T,6440,149927,-152342,-2515,1925,620,10456,3104,-3104,0
T,6460,150422,-152846,-2485,-2052,4639,10659,3114,-3117,0
T,6480,150917,-153348,-2481,-306,2538,8066,3124,-3125,0
T,6500,151411,-153851,-2483,-486,3707,6917,3134,-3136,0
T,6520,151909,-154356,-2501,139,3101,6871,3144,-3146,0
T,6540,152408,-154863,-2510,153,766,6279,3153,-3157,0
T,6560,152909,-155373,-2511,-1604,2038,10356,3164,-3168,0
T,6580,153408,-155880,-2485,-2571,5580,5462,3173,-3179,0
T,6600,153909,-156389,-2536,1117,1700,12171,3184,-3190,0
T,6620,154413,-156901,-2540,18,608,9699,3196,-3201,0
T,6640,154918,-157414,-2547,1729,224,13890,3206,-3212,0
T,6660,155421,-157925,-2520,-1450,3226,6735,3216,-3222,0
T,6680,155920,-158432,-2502,-2832,-2541,3514,3227,-3231,0
T,6700,156417,-158937,-2477,-2301,1937,4481,3237,-3241,0
T,6720,156912,-159440,-2499,-976,1606,7650,3247,-3251,0
T,6740,157409,-159945,-2501,-2443,3056,11416,3258,-3260,0
T,6760,157908,-160452,-2509,-654,4622,13625,3268,-3270,0
T,6780,158404,-160956,-2516,1129,1820,15412,3279,-3279,0
T,6800,158900,-161460,-2490,20,1087,10623,3289,-3289,0
T,6820,159395,-161963,-2472,-206,2148,5608,3299,-3300,0
T,6840,159888,-162494,-2497,1788,-2651,8006,3309,-3310,0
T,6860,160412,-162997,-2486,-751,1992,6301,3319,-3320,0
T,6880,160909,-163502,-2512,769,497,10103,3329,-3330,0
T,6900,161409,-164010,-2516,2150,-1075,11832,3340,-3341,0
T,6920,161909,-164517,-2514,1402,2850,11251,3350,-3351,0
T,6940,162409,-165025,-2518,2103,1472,12128,3361,-3362,0
T,6960,162906,-165531,-2475,390,246,7335,3370,-3373,0
T,6980,163400,-166033,-2492,103,2138,6895,3381,-3384,0
T,7000,163900,-166541,-2524,1243,3396,12097,3390,-3395,0
T,7020,164401,-167050,-2535,1411,-469,10943,3400,-3406,0
T,7040,164904,-167561,-2522,-71,2660,8333,3410,-3416,0
T,7060,165411,-168076,-2569,-419,-38,8350,3421,-3426,0
T,7080,165925,-168598,-2605,2328,21,7693,3431,-3436,0
T,7100,166441,-169122,-2593,-1199,2030,4168,3442,-3446,0
T,7120,166958,-169648,-2598,-1656,4692,13802,3453,-3456,0
T,7140,167471,-170169,-2589,-685,2526,19921,3464,-3465,0
T,7160,167977,-170683,-2543,-422,1262,9496,3474,-3478,0
T,7180,168483,-171197,-2553,-538,332,7409,3484,-3486,0
T,7200,168990,-171713,-2563,1790,-3224,3795,3494,-3497,0
T,7220,169501,-172232,-2559,-3990,8515,17626,3503,-3508,0
T,7240,170007,-172746,-2540,1589,869,10855,3513,-3518,0
T,7260,170509,-173257,-2545,-1552,-144,2699,3522,-3529,0
T,7280,171010,-173795,-2504,-1403,620,12969,3532,-3539,0
T,7300,171534,-174297,-2476,373,2157,10972,3542,-3550,0
T,7320,172020,-174791,-2426,944,205,9740,3551,-3561,0
T,7340,172496,-175275,-2370,238,1942,11166,3560,-3569,0
T,7360,172960,-175747,-2294,1544,-2419,1469,3570,-3578,0
T,7380,173411,-176205,-2233,1733,3499,11454,3578,-3586,0
T,7400,173845,-176645,-2133,-462,2284,11674,3586,-3594,0
T,7420,174257,-177064,-2027,2103,-1011,8338,3594,-3601,0
T,7440,174651,-177464,-1947,1975,2126,11402,3601,-3608,0
T,7460,175029,-177849,-1871,-220,1264,7886,3608,-3613,0
T,7480,175395,-178221,-1798,1432,-1403,8018,3615,-3620,0
T,7500,175744,-178576,-1730,-282,2854,9785,3621,-3625,0
T,7520,176082,-178918,-1661,2101,-599,9011,3628,-3631,0
T,7540,176406,-179248,-1597,1857,354,11211,3635,-3637,0
T,7560,176715,-179562,-1525,1008,3369,11166,3640,-3642,0
T,7580,177007,-179858,-1425,-979,495,14597,3646,-3648,0
T,7600,177283,-180139,-1341,2390,378,6750,3651,-3653,0
T,7620,177546,-180407,-1297,660,2617,10573,3657,-3657,0
T,7640,177795,-180659,-1210,696,-2295,9136,3661,-3662,0
T,7660,178030,-180898,-1146,1771,505,7683,3666,-3666,0
T,7680,178252,-181124,-1087,928,-817,9749,3670,-3670,0
T,7700,178462,-181338,-1026,1295,888,11428,3674,-3674,0
T,7720,178658,-181537,-947,570,81,9329,3678,-3678,0
T,7740,178840,-181732,-878,-2,-551,9809,3681,-3681,0
T,7760,179019,-181904,-822,1046,-2096,8207,3685,-3684,0
T,7780,179176,-182063,-756,629,684,9933,3688,-3687,0
T,7800,179320,-182209,-692,385,200,9637,3690,-3689,0
T,7820,179451,-182342,-632,1087,-419,9293,3693,-3692,0
T,7840,179570,-182463,-565,812,172,8331,3695,-3693,0
T,7860,179676,-182570,-502,-265,306,10779,3697,-3695,0
T,7880,179767,-182664,-422,1110,-72,8708,3698,-3698,0
T,7900,179846,-182743,-364,762,-268,9737,3700,-3699,0
T,7920,179911,-182809,-293,902,-120,9401,3701,-3701,0
T,7940,179965,-182864,-240,629,97,9943,3702,-3702,0
T,7960,180002,-182902,-144,551,143,9694,3703,-3702,0
T,7980,180020,-182921,-40,904,-110,9625,3703,-3702,0
T,8000,180021,-182921,17,155,-405,9814,3703,-3702,0
# 記録の数: 401 / 間隔: 20 ms
# 止まった時 rotation Z: -1829.21 / モーター 左/右: 3703 -3702 度
# 命令: 1800 度 / 止まった時のジャイロ h1: 1800.21 度
# 定規に合わせ直した時のジャイロ h2: 1795.89 度
# 本当のズレ（＋は回り足りない）: -4.32 度（ジャイロの目盛りで）
# モーターで回ったときのジャイロの 1 周の読み: 359.177 度（360 なら目盛りは合っている）
# 電池: 7847 mV

==================================================
終了コード: 0
終了日時  : 2026-09-19 11:18:39
実行時間  : 31.3 秒
