=== 実行ログ ===
スクリプト: run_gyro_state_trace.py
実行日時 : 2026-09-19 11:19:14
ハブ     : --name Pybricks Hub3
==================================================

Searching for Pybricks Hub3...

  0%|          | 0.00/7.45k [00:00<?, ?B/s]
 14%|█▎        | 1.01k/7.45k [00:00<00:00, 7.81kB/s]
 27%|██▋       | 2.03k/7.45k [00:00<00:00, 7.53kB/s]
 41%|████      | 3.04k/7.45k [00:00<00:00, 7.80kB/s]
 54%|█████▍    | 4.06k/7.45k [00:00<00:00, 8.30kB/s]
 68%|██████▊   | 5.07k/7.45k [00:00<00:00, 8.27kB/s]
 82%|████████▏ | 6.08k/7.45k [00:00<00:00, 8.57kB/s]
 95%|█████████▌| 7.10k/7.45k [00:00<00:00, 6.17kB/s]
100%|██████████| 7.45k/7.45k [00:01<00:00, 5.72kB/s]
=== ロボット初期化開始 ===
★ 走行設定: new （new＝今年の値 / old＝昨年の速度・加速度・PID）
✓ 機体の校正表: Pybricks Hub3 {'heading_correction': 365.8, 'wheel': 62.32, 'axle': 114.48}
✓ ハブ設定完了
✓ モーター設定完了
✓ デフォルト設定適用: 直進={'straight_acceleration': 800, 'straight_speed': 550}, 回転={'turn_acceleration': 313, 'turn_rate': 250}
✓ ロボットパラメータ設定完了
✓ PID制御設定完了（Pybricks の既定値を使用）
✓ センサー初期化完了
✓ モーター角度リセット完了: 全モーター=0°
=== ロボット初期化完了 ===
# imu.settings: (2.0, 2500.0, (0.107595, -1.197198, -0.486059), (366.1989, 351.5872, 362.0139), (10031.61, -9781.568, 9785.638, -9813.727, 9523.833, -10133.98), 365.8)
# 前: tilt (-0.1704844, 0.2137506) / 角速度 Matrix([
    [  -0.025],
    [  -0.028],
    [  -0.151],
])
# ★いま★ ライトが緑になったら（ピーと鳴ったら）、手で定規にぴったり当て直して、手を離してね
# 列: T,ms,heading*100,rotZ*100,wz*10,ax,ay,az,left,right,stationary
T,0,0,0,0,53,61,9833,0,0,1
T,20,0,0,-1,61,49,9821,0,0,0
T,40,0,0,-2,-152,-117,9761,0,0,0
T,60,0,0,0,174,124,9752,0,0,0
T,80,0,0,0,-66,28,9807,0,0,0
T,100,0,0,1,172,49,9778,0,0,0
T,120,0,0,0,-109,95,9799,0,0,0
T,140,0,0,0,132,9,9842,0,0,0
T,160,0,0,-1,-81,21,9802,0,0,0
T,180,1,-1,0,98,42,9802,0,0,0
T,200,1,-1,0,-17,-5,9835,0,0,0
T,220,1,-1,-2,63,-14,9823,0,0,0
T,240,1,-1,-1,32,16,9814,0,0,0
T,260,1,-1,-4,-88,-43,9802,0,0,0
T,280,6,-6,-77,-1557,-146,9546,0,-2,0
T,300,50,-50,-343,-1562,-285,10332,3,-7,0
T,320,140,-142,-549,-1216,-45,9417,9,-14,0
T,340,272,-276,-755,-1585,52,9620,17,-20,0
T,360,440,-447,-910,-1242,725,10786,25,-27,0
T,380,638,-648,-1060,-344,-433,7619,32,-33,0
T,400,857,-870,-1141,-1628,531,9604,39,-39,0
T,420,1092,-1110,-1230,-355,-1353,6635,45,-46,0
T,440,1345,-1367,-1312,-2073,471,9587,51,-53,0
T,460,1615,-1641,-1408,-2820,4385,10103,58,-60,0
T,480,1908,-1938,-1521,302,112,7977,65,-67,0
T,500,2219,-2255,-1608,-1661,1690,11669,70,-75,0
T,520,2546,-2587,-1672,-578,-254,8099,78,-82,0
T,540,2885,-2932,-1736,-1521,3774,15698,88,-90,0
T,560,3240,-3314,-1835,-173,2306,14308,97,-99,0
T,580,3612,-3694,-1918,286,265,10320,105,-107,0
T,600,4022,-4087,-1974,-69,2639,9386,113,-115,0
T,620,4416,-4487,-1996,-2393,2608,10521,121,-124,0
T,640,4816,-4894,-2039,527,1997,10518,129,-134,0
T,660,5226,-5311,-2088,-562,2361,9678,138,-144,0
T,680,5644,-5735,-2101,260,-1392,5147,147,-154,0
T,700,6069,-6166,-2151,1051,-326,9998,157,-163,0
T,720,6501,-6605,-2202,1570,176,10196,166,-174,0
T,740,6939,-7050,-2213,243,591,8343,178,-183,0
T,760,7383,-7502,-2274,2013,-1468,12895,191,-195,0
T,780,7836,-7962,-2307,1956,1841,18266,199,-207,0
T,800,8296,-8429,-2312,-2353,675,7848,209,-217,0
T,820,8759,-8900,-2337,-1159,4833,8978,220,-229,0
T,840,9230,-9379,-2401,1530,-963,13215,230,-241,0
T,860,9708,-9864,-2407,-3163,919,8364,241,-252,0
T,880,10188,-10353,-2423,-2047,2833,7648,253,-263,0
T,900,10677,-10849,-2460,871,5611,12830,264,-275,0
T,920,11174,-11354,-2510,935,-2285,9119,276,-286,0
T,940,11678,-11866,-2540,-443,4498,10217,288,-297,0
T,960,12188,-12384,-2575,-922,6646,18213,300,-308,0
T,980,12699,-12904,-2556,-1161,2725,16453,311,-318,0
T,1000,13209,-13421,-2576,196,2581,13064,323,-329,0
T,1020,13723,-13944,-2628,-872,1190,14246,334,-341,0
T,1040,14243,-14503,-2616,-1708,1575,12259,344,-352,0
T,1060,14797,-15035,-2643,544,1954,10408,355,-365,0
T,1080,15323,-15570,-2648,-66,1132,13446,366,-378,0
T,1100,15853,-16108,-2678,63,-55,9456,378,-389,0
T,1120,16387,-16651,-2700,-820,3384,12610,389,-402,0
T,1140,16922,-17195,-2689,-945,-795,4954,401,-414,0
T,1160,17454,-17736,-2651,181,878,7289,412,-426,0
T,1180,17985,-18274,-2676,-427,45,9833,424,-437,0
T,1200,18512,-18811,-2640,-242,-443,11256,434,-448,0
T,1220,19033,-19340,-2616,3259,-381,12641,446,-458,0
T,1240,19551,-19866,-2593,-216,2301,6138,457,-467,0
T,1260,20073,-20396,-2627,1395,3139,10991,468,-477,0
T,1280,20596,-20928,-2625,1248,-261,7855,480,-487,0
T,1300,21119,-21460,-2635,-1559,1111,15677,490,-498,0
T,1320,21640,-21989,-2614,-329,1199,7695,501,-508,0
T,1340,22158,-22515,-2608,-277,2145,7000,512,-519,0
T,1360,22677,-23043,-2623,-263,902,16288,521,-529,0
T,1380,23199,-23573,-2641,741,754,15789,532,-540,0
T,1400,23721,-24103,-2626,-396,2644,11407,543,-551,0
T,1420,24242,-24633,-2615,-2171,2064,12591,554,-562,0
T,1440,24761,-25160,-2611,-261,1094,9255,564,-573,0
T,1460,25279,-25717,-2600,397,1077,5006,575,-584,0
T,1480,25799,-26246,-2636,762,4074,11146,585,-595,0
T,1500,26323,-26778,-2621,-687,5916,21674,594,-606,0
T,1520,26875,-27308,-2636,1778,-429,9284,605,-616,0
T,1540,27395,-27837,-2614,-5028,-4714,16458,616,-627,0
T,1560,27915,-28364,-2583,1302,8316,1971,627,-637,0
T,1580,28436,-28894,-2610,-609,1753,5353,638,-647,0
T,1600,28959,-29426,-2641,997,4613,11806,649,-657,0
T,1620,29481,-29956,-2605,-434,-1145,4180,660,-667,0
T,1640,29996,-30479,-2558,89,4938,8768,670,-676,0
T,1660,30507,-30999,-2579,-1126,2117,13976,679,-689,0
T,1680,31019,-31519,-2584,153,1408,8281,690,-697,0
T,1700,31528,-32036,-2552,1037,1954,8503,700,-707,0
T,1720,32032,-32548,-2549,2866,-2192,8837,709,-718,0
T,1740,32533,-33057,-2513,2295,-2877,7779,719,-729,0
T,1760,33034,-33566,-2501,1470,4222,7789,729,-740,0
T,1780,33533,-34073,-2489,-1945,5736,12006,740,-750,0
T,1800,34032,-34580,-2493,-2014,3286,5477,750,-761,0
T,1820,34532,-35088,-2513,2733,1477,13088,761,-773,0
T,1840,35027,-35591,-2493,-1033,-1914,4154,771,-782,0
T,1860,35522,-36094,-2506,-1230,2133,11798,782,-793,0
T,1880,36018,-36598,-2492,-382,3944,12266,792,-802,0
T,1900,36509,-37098,-2461,-2024,5259,12489,802,-811,0
T,1920,36995,-37591,-2442,255,1379,2804,813,-821,0
T,1940,37484,-38118,-2478,463,1168,9606,823,-829,0
T,1960,38004,-38616,-2456,-1272,3106,14411,834,-838,0
T,1980,38492,-39112,-2441,316,4165,10265,844,-848,0
T,2000,38981,-39609,-2459,395,-821,9174,854,-857,0
T,2020,39468,-40104,-2438,1658,-1514,5553,864,-867,0
T,2040,39954,-40598,-2444,-716,3987,13045,874,-877,0
T,2060,40440,-41092,-2430,-320,3489,13387,884,-887,0
T,2080,40926,-41585,-2437,2252,-568,8691,894,-897,0
T,2100,41411,-42078,-2444,2051,-179,10456,904,-907,0
T,2120,41897,-42572,-2447,25,1650,7029,915,-918,0
T,2140,42385,-43068,-2444,-2199,6634,13081,925,-929,0
T,2160,42871,-43562,-2438,-2059,-563,9045,935,-940,0
T,2180,43357,-44055,-2455,1416,339,6298,944,-951,0
T,2200,43846,-44553,-2467,340,3551,12828,954,-962,0
T,2220,44336,-45051,-2466,-680,2502,9687,964,-972,0
T,2240,44830,-45552,-2488,-730,2016,11531,975,-983,0
T,2260,45328,-46059,-2510,-2604,2021,8691,986,-992,0
T,2280,45829,-46567,-2522,1551,627,15288,997,-1003,0
T,2300,46330,-47076,-2535,1816,-2381,12517,1008,-1012,0
T,2320,46834,-47589,-2522,-325,2371,9360,1019,-1023,0
T,2340,47338,-48101,-2523,738,-977,10936,1029,-1033,0
T,2360,47842,-48644,-2557,816,-354,8918,1038,-1043,0
T,2380,48350,-49159,-2563,2181,3326,14328,1049,-1053,0
T,2400,48857,-49674,-2520,-55,2136,8844,1059,-1064,0
T,2420,49391,-50187,-2538,165,-884,4323,1068,-1074,0
T,2440,49899,-50703,-2553,-462,-929,6465,1079,-1085,0
T,2460,50409,-51221,-2556,155,5861,12426,1089,-1096,0
T,2480,50920,-51740,-2572,-851,3357,13191,1100,-1107,0
T,2500,51435,-52263,-2594,-2493,4462,10905,1111,-1118,0
T,2520,51950,-52787,-2593,-351,236,4801,1121,-1130,0
T,2540,52464,-53309,-2579,37,2327,12649,1132,-1140,0
T,2560,52976,-53830,-2576,-877,4354,8476,1142,-1151,0
T,2580,53489,-54351,-2576,-832,3628,11402,1152,-1161,0
T,2600,53996,-54866,-2547,-934,-38,2974,1162,-1170,0
T,2620,54500,-55378,-2552,-436,1058,10807,1173,-1180,0
T,2640,55007,-55894,-2533,-678,4464,10564,1183,-1189,0
T,2660,55511,-56405,-2512,-1201,3585,10155,1194,-1198,0
T,2680,56011,-56914,-2517,-64,2399,15001,1204,-1208,0
T,2700,56512,-57422,-2517,42,1748,12450,1214,-1218,0
T,2720,57011,-57929,-2510,-2052,426,12087,1224,-1228,0
T,2740,57508,-58435,-2505,-547,3777,11636,1234,-1238,0
T,2760,58007,-58942,-2520,1238,790,12890,1244,-1248,0
T,2780,58508,-59451,-2514,217,5221,15003,1254,-1259,0
T,2800,59010,-59961,-2529,970,1355,7404,1264,-1269,0
T,2820,59514,-60473,-2542,-76,1163,11875,1275,-1279,0
T,2840,60017,-61013,-2515,-1315,-853,13597,1284,-1291,0
T,2860,60543,-61519,-2493,2534,759,14750,1294,-1301,0
T,2880,61041,-62025,-2499,-3097,6452,12095,1304,-1312,0
T,2900,61543,-62534,-2532,300,76,16126,1313,-1322,0
T,2920,62048,-63047,-2538,151,1709,9551,1323,-1333,0
T,2940,62555,-63562,-2548,-687,4917,10912,1334,-1343,0
T,2960,63062,-64078,-2584,1018,-7715,5725,1344,-1353,0
T,2980,63571,-64595,-2536,878,684,13991,1355,-1363,0
T,3000,64077,-65109,-2559,-4770,8256,15175,1366,-1373,0
T,3020,64585,-65626,-2568,-308,406,13840,1377,-1383,0
T,3040,65090,-66139,-2540,3615,-594,7609,1386,-1393,0
T,3060,65590,-66647,-2501,-1678,4407,10117,1396,-1402,0
T,3080,66089,-67154,-2489,1286,-2527,772,1406,-1412,0
T,3100,66587,-67659,-2483,-1317,4912,6124,1416,-1422,0
T,3120,67080,-68160,-2480,-1377,1906,12042,1426,-1432,0
T,3140,67574,-68662,-2487,-1616,4258,11273,1436,-1443,0
T,3160,68067,-69164,-2456,1399,277,6807,1445,-1454,0
T,3180,68560,-69665,-2467,-334,9,10327,1455,-1465,0
T,3200,69053,-70166,-2486,589,-64,7077,1466,-1475,0
T,3220,69549,-70669,-2478,985,3880,8352,1476,-1486,0
T,3240,70042,-71170,-2468,1551,-342,4686,1487,-1497,0
T,3260,70531,-71697,-2458,1482,1995,11347,1497,-1507,0
T,3280,71022,-72196,-2460,2210,-385,7789,1508,-1517,0
T,3300,71511,-72692,-2439,153,3362,5938,1517,-1527,0
T,3320,72023,-73183,-2426,-223,3070,12025,1527,-1535,0
T,3340,72509,-73677,-2442,-100,1968,14874,1538,-1544,0
T,3360,72997,-74173,-2444,80,-2089,8080,1549,-1553,0
T,3380,73486,-74670,-2465,-1915,5537,15667,1559,-1563,0
T,3400,73977,-75169,-2451,-237,-1020,6764,1569,-1573,0
T,3420,74468,-75668,-2473,530,2347,10033,1579,-1583,0
T,3440,74957,-76164,-2444,-972,4088,7108,1589,-1593,0
T,3460,75445,-76660,-2482,-1370,1681,15746,1600,-1603,0
T,3480,75934,-77157,-2446,-438,3705,10927,1609,-1613,0
T,3500,76423,-77654,-2457,1563,1676,14514,1619,-1623,0
T,3520,76912,-78151,-2462,-967,5947,14526,1630,-1635,0
T,3540,77403,-78650,-2456,1352,-242,10905,1640,-1646,0
T,3560,77892,-79147,-2446,-1671,5714,14320,1650,-1656,0
T,3580,78378,-79641,-2444,-618,1491,9281,1660,-1667,0
T,3600,78869,-80139,-2481,2508,-1327,12085,1670,-1678,0
T,3620,79361,-80640,-2481,-2694,2876,15245,1680,-1688,0
T,3640,79852,-81138,-2474,693,2950,4061,1690,-1699,0
T,3660,80344,-81639,-2486,724,-2,8039,1701,-1709,0
T,3680,80841,-82143,-2514,-1104,9109,15873,1711,-1719,0
T,3700,81340,-82650,-2529,1639,1393,11672,1723,-1728,0
T,3720,81842,-83161,-2524,-1289,2409,7433,1734,-1738,0
T,3740,82345,-83702,-2533,-735,2138,10707,1744,-1748,0
T,3760,82874,-84209,-2513,-915,1765,9066,1754,-1757,0
T,3780,83376,-84720,-2521,-813,2177,9952,1765,-1768,0
T,3800,83882,-85233,-2525,-1147,306,7755,1775,-1778,0
T,3820,84384,-85744,-2522,-1393,4004,9439,1784,-1788,0
T,3840,84887,-86255,-2536,-161,1199,10084,1794,-1799,0
T,3860,85396,-86771,-2566,1212,4043,13028,1805,-1810,0
T,3880,85906,-87290,-2560,-2398,3650,12147,1815,-1821,0
T,3900,86418,-87810,-2571,-1699,2165,7246,1825,-1833,0
T,3920,86933,-88334,-2594,68,-79,10217,1836,-1844,0
T,3940,87447,-88856,-2585,1172,1563,12391,1846,-1855,0
T,3960,87959,-89377,-2584,293,1748,14659,1857,-1866,0
T,3980,88473,-89898,-2584,2539,2258,10048,1867,-1876,0
T,4000,88982,-90416,-2546,1404,2009,12618,1877,-1886,0
T,4020,89484,-90926,-2511,-564,2874,8570,1888,-1895,0
T,4040,89988,-91438,-2529,231,2227,8770,1899,-1904,0
T,4060,90494,-91952,-2540,1380,255,5856,1909,-1914,0
T,4080,90996,-92462,-2538,757,-845,7839,1920,-1924,0
T,4100,91499,-92973,-2515,-1066,708,8629,1929,-1933,0
T,4120,92000,-93482,-2506,226,2184,5200,1940,-1944,0
T,4140,92500,-93990,-2513,1205,1096,16023,1950,-1954,0
T,4160,93000,-94528,-2525,-242,157,7509,1960,-1964,0
T,4180,93532,-95039,-2524,-1486,4443,8565,1969,-1974,0
T,4200,94035,-95550,-2526,-190,93,8027,1980,-1984,0
T,4220,94540,-96063,-2548,933,4033,11944,1990,-1995,0
T,4240,95049,-96580,-2555,-870,3001,6628,2000,-2006,0
T,4260,95554,-97093,-2531,899,727,10927,2010,-2016,0
T,4280,96054,-97602,-2520,-405,1918,10232,2020,-2027,0
T,4300,96556,-98111,-2527,2331,193,12761,2029,-2037,0
T,4320,97057,-98621,-2550,880,2529,15204,2039,-2048,0
T,4340,97561,-99133,-2570,58,-350,19133,2049,-2059,0
T,4360,98070,-99650,-2536,2847,-8894,-7674,2059,-2068,0
T,4380,98581,-100170,-2568,-1514,4426,9764,2070,-2078,0
T,4400,99090,-100686,-2538,402,-6563,3590,2081,-2088,0
T,4420,99600,-101204,-2583,-512,6162,7953,2091,-2098,0
T,4440,100107,-101720,-2540,-341,1918,6812,2102,-2107,0
T,4460,100609,-102230,-2510,224,-1221,4416,2112,-2116,0
T,4480,101108,-102737,-2513,2032,1597,6578,2122,-2129,0
T,4500,101606,-103243,-2506,1321,-1696,12123,2132,-2137,0
T,4520,102099,-103744,-2461,-3102,3961,9685,2141,-2147,0
T,4540,102591,-104244,-2475,1051,-1506,7891,2150,-2158,0
T,4560,103087,-104748,-2504,1786,246,12049,2160,-2169,0
T,4580,103583,-105252,-2501,-1877,2289,4462,2170,-2179,0
T,4600,104074,-105751,-2478,75,-1514,7072,2181,-2190,0
T,4620,104569,-106254,-2503,-720,2684,10561,2191,-2201,0
T,4640,105065,-106787,-2494,-1554,1015,14726,2202,-2212,0
T,4660,105585,-107286,-2458,91,1192,4772,2212,-2222,0
T,4680,106075,-107785,-2485,196,706,14201,2222,-2233,0
T,4700,106565,-108282,-2450,-1327,2471,7003,2232,-2242,0
T,4720,107048,-108773,-2419,-367,1623,8238,2242,-2251,0
T,4740,107528,-109261,-2430,-1441,4692,9728,2253,-2261,0
T,4760,108014,-109754,-2446,-848,2155,10437,2263,-2269,0
T,4780,108501,-110249,-2444,-796,4361,14573,2274,-2279,0
T,4800,108986,-110742,-2437,556,2045,12797,2284,-2288,0
T,4820,109473,-111237,-2441,-1201,1889,15949,2294,-2298,0
T,4840,109960,-111732,-2447,670,2366,11672,2304,-2308,0
T,4860,110446,-112226,-2451,1283,-1547,11980,2314,-2318,0
T,4880,110934,-112722,-2465,-656,2459,7129,2324,-2328,0
T,4900,111424,-113219,-2454,354,2186,10010,2335,-2338,0
T,4920,111913,-113716,-2457,1603,-1784,6160,2345,-2349,0
T,4940,112404,-114215,-2477,1233,260,11497,2355,-2359,0
T,4960,112896,-114715,-2471,-756,-1233,8211,2365,-2371,0
T,4980,113385,-115212,-2483,-4969,11444,20093,2375,-2381,0
T,5000,113874,-115708,-2446,-1064,2165,17981,2385,-2392,0
T,5020,114364,-116207,-2478,2812,1719,11046,2395,-2402,0
T,5040,114856,-116707,-2460,1025,3458,17490,2405,-2413,0
T,5060,115350,-117238,-2494,-1320,4035,12818,2415,-2423,0
T,5080,115849,-117745,-2513,4285,-3150,2482,2426,-2433,0
T,5100,116379,-118254,-2524,-211,2430,11454,2437,-2443,0
T,5120,116883,-118766,-2545,-415,481,5701,2448,-2453,0
T,5140,117391,-119282,-2542,-280,1324,10929,2459,-2463,0
T,5160,117896,-119796,-2517,2729,-2232,6776,2469,-2473,0
T,5180,118400,-120307,-2536,-479,4282,16969,2479,-2484,0
T,5200,118907,-120822,-2556,-519,5602,8304,2489,-2493,0
T,5220,119415,-121339,-2542,1115,-831,7672,2499,-2503,0
T,5240,119922,-121854,-2563,110,4759,14552,2509,-2513,0
T,5260,120432,-122373,-2569,-637,3590,9723,2519,-2525,0
T,5280,120942,-122891,-2569,1274,-1986,6079,2529,-2536,0
T,5300,121452,-123409,-2568,2065,3171,8572,2540,-2547,0
T,5320,121963,-123928,-2579,-1187,-38,12049,2550,-2559,0
T,5340,122473,-124446,-2550,-1002,2857,10707,2561,-2570,0
T,5360,122977,-124959,-2517,1504,1398,13544,2571,-2580,0
T,5380,123480,-125470,-2519,-2353,5784,14184,2582,-2591,0
T,5400,123983,-125980,-2527,399,-237,12032,2591,-2601,0
T,5420,124481,-126487,-2490,499,3992,14318,2602,-2610,0
T,5440,124976,-126989,-2501,380,1983,13110,2612,-2619,0
T,5460,125474,-127526,-2522,229,610,6950,2623,-2628,0
T,5480,125974,-128004,-2499,1359,1856,9811,2633,-2638,0
T,5500,126476,-128513,-2526,-988,112,12231,2644,-2647,0
T,5520,126979,-129025,-2524,1215,169,5068,2654,-2657,0
T,5540,127480,-129563,-2508,1004,1980,13501,2664,-2667,0
T,5560,128005,-130068,-2501,902,1753,10511,2674,-2678,0
T,5580,128506,-130576,-2524,378,-1044,5754,2684,-2687,0
T,5600,129008,-131087,-2526,-1313,2236,8367,2694,-2698,0
T,5620,129511,-131598,-2538,-2040,5235,10482,2704,-2708,0
T,5640,130018,-132113,-2548,-2090,3422,6344,2715,-2719,0
T,5660,130528,-132631,-2555,-1400,5911,12056,2724,-2730,0
T,5680,131034,-133145,-2536,-2955,1848,10012,2734,-2741,0
T,5700,131541,-133660,-2544,-242,2131,10592,2744,-2751,0
T,5720,132047,-134174,-2541,-107,1194,14793,2753,-2762,0
T,5740,132552,-134688,-2540,-102,2807,10843,2764,-2773,0
T,5760,133057,-135201,-2547,390,2023,12699,2774,-2783,0
T,5780,133567,-135718,-2565,-675,-1145,7672,2784,-2793,0
T,5800,134079,-136239,-2589,-462,1417,16016,2794,-2803,0
T,5820,134592,-136760,-2579,-2398,962,11490,2805,-2812,0
T,5840,135107,-137284,-2568,1823,2519,853,2816,-2822,0
T,5860,135619,-137804,-2557,3162,2991,10986,2826,-2832,0
T,5880,136124,-138317,-2539,613,509,8149,2836,-2842,0
T,5900,136631,-138832,-2548,179,895,17084,2846,-2851,0
T,5920,137136,-139346,-2516,101,4579,7698,2856,-2862,0
T,5940,137634,-139851,-2492,-121,2933,9233,2865,-2871,0
T,5960,138132,-140387,-2497,366,2579,7555,2874,-2883,0
T,5980,138658,-140892,-2504,2620,838,11161,2885,-2893,0
T,6000,139155,-141397,-2499,-100,2196,10807,2895,-2904,0
T,6020,139650,-141900,-2490,-682,4661,10473,2905,-2915,0
T,6040,140147,-142405,-2485,722,1475,7063,2915,-2925,0
T,6060,140642,-142907,-2475,75,3434,7562,2926,-2936,0
T,6080,141133,-143407,-2452,-1043,3468,6356,2936,-2946,0
T,6100,141625,-143907,-2463,-325,5805,11598,2946,-2957,0
T,6120,142115,-144405,-2451,2610,399,10158,2956,-2966,0
T,6140,142599,-144896,-2433,1973,-1368,12981,2967,-2974,0
T,6160,143083,-145388,-2431,-92,2462,10404,2977,-2983,0
T,6180,143572,-145885,-2471,1409,-706,15409,2988,-2992,0
T,6200,144063,-146384,-2465,814,3451,12204,2998,-3002,0
T,6220,144557,-146886,-2492,-867,2821,9838,3008,-3011,0
T,6240,145051,-147388,-2470,203,315,10915,3017,-3021,0
T,6260,145543,-147888,-2479,-709,4466,15658,3027,-3031,0
T,6280,146036,-148389,-2482,712,1367,12061,3037,-3041,0
T,6300,146531,-148892,-2488,864,2555,13955,3047,-3052,0
T,6320,147025,-149394,-2452,2046,-136,5455,3057,-3062,0
T,6340,147518,-149895,-2481,565,3825,10702,3068,-3073,0
T,6360,148011,-150396,-2481,968,3563,10924,3078,-3083,0
T,6380,148502,-150924,-2456,205,-191,10867,3088,-3094,0
T,6400,148989,-151390,-2442,1989,3566,10112,3097,-3105,0
T,6420,149508,-151917,-2466,-787,6234,11741,3107,-3115,0
T,6440,149969,-152414,-2442,1032,2567,7703,3117,-3126,0
T,6460,150485,-152909,-2463,2977,-503,10179,3127,-3136,0
T,6480,150974,-153406,-2457,-334,1192,5730,3138,-3146,0
T,6500,151466,-153906,-2462,-1289,4699,12687,3148,-3156,0
T,6520,151958,-154406,-2484,534,2553,3850,3159,-3166,0
T,6540,152455,-154911,-2514,646,-1550,7626,3170,-3175,0
T,6560,152951,-155415,-2498,-1886,3068,9107,3180,-3185,0
T,6580,153445,-155917,-2464,715,3269,14624,3190,-3195,0
T,6600,153938,-156418,-2474,589,866,7829,3200,-3205,0
T,6620,154438,-156926,-2521,1252,-318,7815,3210,-3214,0
T,6640,154937,-157433,-2523,793,-31,12266,3220,-3224,0
T,6660,155439,-157943,-2534,1286,-342,7884,3230,-3234,0
T,6680,155945,-158457,-2548,148,3604,6012,3241,-3245,0
T,6700,156454,-158975,-2559,-479,3698,10439,3252,-3256,0
T,6720,156963,-159492,-2552,-2182,1777,6659,3263,-3267,0
T,6740,157474,-160011,-2565,300,531,7454,3274,-3278,0
T,6760,157983,-160528,-2547,-436,3894,10411,3284,-3289,0
T,6780,158488,-161042,-2536,1271,2569,3877,3294,-3300,0
T,6800,158992,-161554,-2550,2006,1041,10053,3304,-3310,0
T,6820,159492,-162062,-2490,16,2351,13795,3313,-3320,0
T,6840,159982,-162559,-2471,1890,-455,10189,3323,-3330,0
T,6860,160475,-163090,-2500,-149,4744,15842,3334,-3340,0
T,6880,160973,-163596,-2503,-33,794,6957,3344,-3348,0
T,6900,161499,-164100,-2488,608,2045,9288,3356,-3357,0
T,6920,161992,-164602,-2488,139,2979,8713,3366,-3367,0
T,6940,162488,-165106,-2501,-441,1079,11146,3376,-3377,0
T,6960,162985,-165611,-2501,34,3374,18602,3386,-3387,0
T,6980,163482,-166116,-2493,421,2006,6673,3396,-3397,0
T,7000,163981,-166623,-2508,-654,1575,8653,3406,-3408,0
T,7020,164482,-167132,-2516,1101,2577,9121,3416,-3418,0
T,7040,164985,-167644,-2532,-1744,1753,8314,3427,-3428,0
T,7060,165492,-168159,-2542,805,2074,11631,3437,-3439,0
T,7080,166001,-168675,-2536,-1903,5671,6626,3447,-3450,0
T,7100,166508,-169191,-2563,1511,1424,12813,3458,-3461,0
T,7120,167017,-169708,-2548,-742,4397,9797,3467,-3472,0
T,7140,167523,-170222,-2527,1063,814,8849,3477,-3482,0
T,7160,168027,-170734,-2539,2504,2280,11137,3486,-3493,0
T,7180,168532,-171248,-2538,982,1312,12579,3497,-3503,0
T,7200,169040,-171764,-2577,842,-666,7500,3507,-3513,0
T,7220,169550,-172282,-2565,-796,3731,8027,3518,-3523,0
T,7240,170063,-172803,-2568,1319,-84,8039,3528,-3532,0
T,7260,170572,-173350,-2531,4006,1755,4842,3539,-3541,0
T,7280,171071,-173857,-2476,1084,2936,5009,3548,-3550,0
T,7300,171558,-174321,-2431,700,1391,4560,3557,-3559,0
T,7320,172037,-174837,-2389,-1983,2251,8866,3566,-3568,0
T,7340,172535,-175314,-2329,-730,4500,15209,3575,-3577,0
T,7360,172990,-175777,-2234,594,711,6657,3583,-3586,0
T,7380,173432,-176226,-2214,1932,361,15758,3590,-3594,0
T,7400,173863,-176664,-2123,-1145,6057,15166,3598,-3603,0
T,7420,174279,-177087,-2064,2899,521,8591,3605,-3611,0
T,7440,174681,-177495,-1991,1970,-1600,6129,3613,-3619,0
T,7460,175068,-177889,-1896,-1656,3954,10853,3619,-3627,0
T,7480,175440,-178266,-1835,-825,1616,13136,3626,-3634,0
T,7500,175797,-178629,-1761,1677,-623,7330,3633,-3641,0
T,7520,176139,-178977,-1684,307,1839,8168,3639,-3648,0
T,7540,176463,-179306,-1580,-727,4193,10559,3646,-3654,0
T,7560,176770,-179618,-1505,3110,-3753,3098,3651,-3659,0
T,7580,177061,-179914,-1419,-723,6392,11125,3657,-3664,0
T,7600,177336,-180193,-1343,565,-517,12219,3662,-3669,0
T,7620,177593,-180454,-1260,1252,-151,7679,3667,-3674,0
T,7640,177835,-180700,-1171,819,-644,8658,3672,-3677,0
T,7660,178061,-180930,-1102,1523,-1193,6874,3677,-3681,0
T,7680,178274,-181146,-1028,1051,3475,10057,3680,-3684,0
T,7700,178468,-181344,-938,1172,-3662,5940,3685,-3688,0
T,7720,178651,-181529,-896,-988,4737,13855,3689,-3690,0
T,7740,178822,-181703,-819,2015,-2105,7043,3693,-3692,0
T,7760,178980,-181873,-766,1302,-208,9797,3696,-3695,0
T,7780,179129,-182023,-729,-308,1336,10480,3699,-3697,0
T,7800,179276,-182164,-669,520,-472,8995,3701,-3699,0
T,7820,179402,-182292,-598,402,461,10585,3705,-3701,0
T,7840,179516,-182408,-551,776,1281,9678,3708,-3703,0
T,7860,179619,-182513,-488,-17,-462,10986,3710,-3704,0
T,7880,179712,-182607,-445,1037,1063,9926,3711,-3706,0
T,7900,179795,-182692,-385,80,279,11218,3713,-3707,0
T,7920,179863,-182761,-306,752,-206,9212,3714,-3708,0
T,7940,179920,-182818,-256,904,394,10038,3715,-3709,0
T,7960,179957,-182856,-119,1532,267,9740,3715,-3710,0
T,7980,179967,-182866,3,1461,-33,9484,3715,-3710,0
T,8000,179963,-182862,4,-768,-41,9799,3715,-3710,0
# 記録の数: 401 / 間隔: 20 ms
# 止まった時 rotation Z: -1828.67 / モーター 左/右: 3715 -3710 度
# ！ 合わせ直しでほとんど動いていません。当て直しを忘れていたら、この回は無効です
# 命令: 1800 度 / 止まった時のジャイロ h1: 1799.68 度
# 定規に合わせ直した時のジャイロ h2: 1799.67 度
# 本当のズレ（＋は回り足りない）: -0.01 度（ジャイロの目盛りで）
# モーターで回ったときのジャイロの 1 周の読み: 359.934 度（360 なら目盛りは合っている）
# 電池: 7843 mV

==================================================
終了コード: 0
終了日時  : 2026-09-19 11:19:45
実行時間  : 31.1 秒
