=== 実行ログ ===
スクリプト: run_gyro_state_trace.py
実行日時 : 2026-09-19 11:18:41
ハブ     : --name Pybricks Hub3
==================================================

Searching for Pybricks Hub3...

  0%|          | 0.00/7.45k [00:00<?, ?B/s]
 14%|█▎        | 1.01k/7.45k [00:00<00:00, 8.66kB/s]
 27%|██▋       | 2.03k/7.45k [00:00<00:00, 7.84kB/s]
 41%|████      | 3.04k/7.45k [00:00<00:00, 8.41kB/s]
 54%|█████▍    | 4.06k/7.45k [00:00<00:00, 8.32kB/s]
 68%|██████▊   | 5.07k/7.45k [00:00<00:00, 8.65kB/s]
 82%|████████▏ | 6.08k/7.45k [00:00<00:00, 7.59kB/s]
 95%|█████████▌| 7.10k/7.45k [00:01<00:00, 5.28kB/s]
100%|██████████| 7.45k/7.45k [00:01<00:00, 5.07kB/s]
=== ロボット初期化開始 ===
★ 走行設定: new （new＝今年の値 / old＝昨年の速度・加速度・PID）
✓ 機体の校正表: Pybricks Hub3 {'heading_correction': 365.8, 'wheel': 62.32, 'axle': 114.48}
✓ ハブ設定完了
✓ モーター設定完了
✓ デフォルト設定適用: 直進={'straight_acceleration': 800, 'straight_speed': 550}, 回転={'turn_acceleration': 313, 'turn_rate': 250}
✓ ロボットパラメータ設定完了
✓ PID制御設定完了（Pybricks の既定値を使用）
✓ センサー初期化完了
✓ モーター角度リセット完了: 全モーター=0°
=== ロボット初期化完了 ===
# imu.settings: (2.0, 2500.0, (0.107595, -1.197198, -0.486059), (366.1989, 351.5872, 362.0139), (10031.61, -9781.568, 9785.638, -9813.727, 9523.833, -10133.98), 365.8)
# 前: tilt (-0.1601924, 0.2584562) / 角速度 Matrix([
    [  -0.093],
    [  -0.027],
    [  -0.083],
])
# ★いま★ ライトが緑になったら（ピーと鳴ったら）、手で定規にぴったり当て直して、手を離してね
# 列: T,ms,heading*100,rotZ*100,wz*10,ax,ay,az,left,right,stationary
T,0,0,0,0,65,35,9807,0,0,1
T,20,0,0,0,30,28,9821,0,0,0
T,40,0,0,-9,-62,112,9692,0,0,0
T,60,1,-1,8,177,236,9711,0,0,0
T,80,0,0,-5,-142,-38,9711,0,0,0
T,100,1,-1,4,198,35,9809,0,0,0
T,120,0,0,-2,-161,85,9821,0,0,0
T,140,0,0,4,162,-7,9811,0,0,0
T,160,0,0,-3,-140,100,9828,0,0,0
T,180,1,-1,0,177,-48,9768,0,0,0
T,200,1,-1,2,224,-177,9921,1,0,0
T,220,2,-2,-24,-194,33,9931,1,0,0
T,240,17,-18,-160,-1505,773,9711,2,-1,0
T,260,73,-75,-387,-2282,-9,10346,4,-3,0
T,280,163,-165,-501,-1697,354,10463,7,-5,0
T,300,272,-276,-623,-929,-972,8541,10,-8,0
T,320,412,-418,-791,-1289,550,9599,13,-12,0
T,340,586,-595,-971,-1434,-14,8304,16,-18,0
T,360,789,-802,-1093,-3324,1132,9943,21,-24,0
T,380,1017,-1033,-1223,-1872,1777,11428,27,-30,0
T,400,1268,-1288,-1316,-1036,363,10241,33,-37,0
T,420,1534,-1559,-1383,-640,524,8378,39,-43,0
T,440,1813,-1843,-1437,-313,-314,11044,45,-49,0
T,460,2105,-2139,-1514,-464,945,8839,52,-56,0
T,480,2408,-2446,-1575,-1299,2157,9974,58,-63,0
T,500,2724,-2768,-1647,-265,-1394,10098,66,-69,0
T,520,3056,-3105,-1729,-1616,1293,5651,73,-76,0
T,540,3401,-3456,-1780,-2156,1774,9515,80,-84,0
T,560,3755,-3815,-1810,-1317,1556,7578,88,-92,0
T,580,4116,-4182,-1862,956,2105,15944,96,-99,0
T,600,4486,-4558,-1905,-114,2830,13071,104,-107,0
T,620,4866,-4968,-1958,-213,-297,5861,111,-115,0
T,640,5277,-5362,-1991,-140,2033,8111,120,-124,0
T,660,5673,-5764,-2049,314,677,11400,128,-133,0
T,680,6078,-6176,-2086,-367,1674,11228,137,-141,0
T,700,6492,-6597,-2132,-187,1824,11314,147,-150,0
T,720,6912,-7023,-2142,793,-1890,5171,155,-159,0
T,740,7341,-7459,-2216,1378,1051,8452,164,-170,0
T,760,7781,-7906,-2247,-571,3484,9353,174,-180,0
T,780,8229,-8362,-2311,-57,3072,15417,184,-191,0
T,800,8685,-8825,-2336,-109,2222,10623,195,-201,0
T,820,9151,-9299,-2390,2136,596,10523,206,-212,0
T,840,9626,-9781,-2440,2620,1676,9804,217,-223,0
T,860,10105,-10268,-2462,634,1130,9114,227,-234,0
T,880,10589,-10759,-2483,2838,-148,12274,238,-245,0
T,900,11076,-11254,-2481,-571,3441,13179,249,-256,0
T,920,11561,-11748,-2469,-659,-515,5904,260,-266,0
T,940,12051,-12245,-2522,-206,2555,14387,271,-276,0
T,960,12549,-12751,-2548,468,509,8355,282,-286,0
T,980,13049,-13259,-2565,-557,4335,12400,294,-297,0
T,1000,13553,-13771,-2568,56,2869,12140,304,-307,0
T,1020,14058,-14284,-2575,-429,1048,11199,315,-319,0
T,1040,14563,-14798,-2581,-88,-788,9952,325,-330,0
T,1060,15073,-15315,-2619,-36,3365,8519,335,-341,0
T,1080,15584,-15866,-2610,1973,-999,10757,346,-351,0
T,1100,16127,-16387,-2618,2312,2018,9878,358,-364,0
T,1120,16641,-16910,-2616,-711,1839,9219,369,-376,0
T,1140,17155,-17431,-2624,-379,1336,14225,379,-387,0
T,1160,17668,-17953,-2632,16,-1099,6628,390,-398,0
T,1180,18181,-18474,-2607,-962,1729,5570,399,-410,0
T,1200,18693,-18994,-2611,1613,-290,10786,410,-421,0
T,1220,19204,-19514,-2616,-59,2972,7972,421,-432,0
T,1240,19716,-20033,-2607,-1116,1295,6463,433,-442,0
T,1260,20227,-20552,-2591,-178,4143,7762,444,-453,0
T,1280,20736,-21070,-2593,-2159,4047,11770,455,-462,0
T,1300,21246,-21588,-2597,2722,16,9147,466,-473,0
T,1320,21754,-22104,-2576,1347,2684,17382,476,-483,0
T,1340,22258,-22616,-2563,613,1453,7309,487,-494,0
T,1360,22764,-23131,-2589,1177,3233,14540,498,-503,0
T,1380,23268,-23643,-2563,712,378,8491,508,-514,0
T,1400,23772,-24155,-2554,-111,2567,6119,518,-525,0
T,1420,24278,-24669,-2585,745,-946,9331,528,-535,0
T,1440,24786,-25186,-2599,646,1084,10191,539,-547,0
T,1460,25294,-25701,-2604,2816,-36,5049,549,-558,0
T,1480,25804,-26220,-2613,-528,5286,11435,560,-569,0
T,1500,26316,-26740,-2610,46,-570,15424,571,-581,0
T,1520,26820,-27252,-2569,978,10474,1018,582,-591,0
T,1540,27351,-27792,-2549,-450,3595,24102,592,-602,0
T,1560,27852,-28301,-2544,-2919,4754,8737,602,-612,0
T,1580,28349,-28806,-2531,-270,-62,12477,613,-621,0
T,1600,28847,-29312,-2552,4063,-3047,6477,624,-631,0
T,1620,29349,-29822,-2546,-3365,5372,9558,635,-640,0
T,1640,29850,-30330,-2545,1319,3884,14984,647,-650,0
T,1660,30349,-30838,-2542,-2007,6076,16926,657,-660,0
T,1680,30847,-31344,-2539,2826,-1162,5360,667,-670,0
T,1700,31346,-31851,-2520,-1367,5940,11383,677,-681,0
T,1720,31841,-32354,-2506,485,1463,9446,687,-690,0
T,1740,32335,-32856,-2501,-1476,4560,8813,697,-701,0
T,1760,32829,-33358,-2496,1063,591,11361,708,-712,0
T,1780,33323,-33860,-2511,193,3484,5257,719,-723,0
T,1800,33817,-34362,-2523,2160,2304,16412,729,-734,0
T,1820,34308,-34860,-2470,655,2090,3896,739,-745,0
T,1840,34794,-35354,-2479,2108,220,6762,750,-756,0
T,1860,35281,-35849,-2476,-1036,3925,9730,759,-766,0
T,1880,35768,-36344,-2459,-995,4500,9792,769,-777,0
T,1900,36254,-36838,-2491,-597,3429,13905,780,-788,0
T,1920,36742,-37334,-2493,-791,-611,10014,791,-798,0
T,1940,37232,-37861,-2502,-2758,5695,12400,801,-808,0
T,1960,37723,-38331,-2506,-1024,1226,9128,813,-818,0
T,1980,38216,-38862,-2528,-1557,3899,10461,824,-828,0
T,2000,38740,-39364,-2515,-294,996,10683,834,-838,0
T,2020,39228,-39860,-2466,27,1587,7672,845,-848,0
T,2040,39714,-40354,-2478,-7,2921,10705,856,-858,0
T,2060,40203,-40850,-2488,-57,3470,9291,866,-869,0
T,2080,40690,-41346,-2475,-616,4730,5625,876,-879,0
T,2100,41179,-41843,-2499,146,682,7437,886,-890,0
T,2120,41670,-42341,-2491,414,1899,13965,896,-901,0
T,2140,42161,-42840,-2490,80,3863,7297,907,-913,0
T,2160,42654,-43341,-2521,-1313,4122,17380,918,-924,0
T,2180,43148,-43843,-2508,-794,2325,10370,929,-936,0
T,2200,43639,-44342,-2482,3117,-2180,8854,940,-947,0
T,2220,44126,-44837,-2476,108,6289,9663,951,-958,0
T,2240,44614,-45333,-2497,2913,-1854,9456,961,-967,0
T,2260,45101,-45828,-2478,-1346,1242,9544,972,-978,0
T,2280,45586,-46321,-2475,-900,-1123,5090,983,-988,0
T,2300,46077,-46819,-2512,-512,2656,5171,996,-997,0
T,2320,46574,-47325,-2559,-1550,981,7626,1009,-1007,0
T,2340,47075,-47833,-2548,-2483,543,14614,1020,-1017,0
T,2360,47578,-48345,-2545,-1398,-441,6774,1031,-1027,0
T,2380,48078,-48852,-2520,385,4565,16353,1041,-1038,0
T,2400,48574,-49357,-2559,1487,-12,16680,1050,-1049,0
T,2420,49074,-49895,-2568,2179,-1269,15717,1060,-1059,0
T,2440,49605,-50404,-2562,1260,2486,10454,1071,-1070,0
T,2460,50109,-50916,-2567,-791,2704,8121,1082,-1082,0
T,2480,50616,-51431,-2600,-337,4883,9307,1093,-1092,0
T,2500,51123,-51946,-2581,890,236,8142,1103,-1104,0
T,2520,51632,-52464,-2601,80,936,11961,1114,-1115,0
T,2540,52144,-52984,-2618,-71,3676,13876,1124,-1126,0
T,2560,52656,-53504,-2602,-254,1439,10439,1135,-1138,0
T,2580,53166,-54023,-2610,814,684,9503,1145,-1148,0
T,2600,53679,-54544,-2627,-763,2347,12871,1156,-1159,0
T,2620,54193,-55066,-2603,-2417,1920,9506,1167,-1169,0
T,2640,54706,-55588,-2625,1480,282,5673,1178,-1179,0
T,2660,55220,-56110,-2605,234,1539,13114,1190,-1190,0
T,2680,55730,-56628,-2583,2231,-1648,10072,1200,-1200,0
T,2700,56235,-57141,-2572,-310,586,7793,1210,-1211,0
T,2720,56742,-57657,-2586,392,1626,13418,1221,-1221,0
T,2740,57250,-58172,-2565,-780,4474,10642,1231,-1232,0
T,2760,57756,-58686,-2579,-474,1218,5078,1241,-1242,0
T,2780,58265,-59204,-2607,1115,1113,8916,1251,-1253,0
T,2800,58775,-59722,-2594,-26,-79,10026,1261,-1265,0
T,2820,59281,-60236,-2575,-874,3144,8801,1273,-1276,0
T,2840,59785,-60779,-2568,-789,3305,7996,1283,-1288,0
T,2860,60291,-61262,-2582,-1680,4658,11975,1294,-1299,0
T,2880,60796,-61806,-2567,-2118,2857,6649,1304,-1310,0
T,2900,61334,-62322,-2597,-1694,-1212,4803,1315,-1321,0
T,2920,61843,-62840,-2584,-742,-259,6711,1325,-1331,0
T,2940,62346,-63350,-2556,1430,2153,14531,1336,-1341,0
T,2960,62844,-63857,-2531,160,823,7108,1347,-1350,0
T,2980,63343,-64363,-2562,-2561,7937,8359,1358,-1359,0
T,3000,63844,-64872,-2557,470,399,4543,1369,-1369,0
T,3020,64347,-65383,-2581,-1623,2543,11299,1379,-1379,0
T,3040,64849,-65894,-2546,314,1781,16666,1390,-1389,0
T,3060,65348,-66400,-2513,655,-968,717,1400,-1399,0
T,3080,65847,-66908,-2551,-1531,2914,7600,1410,-1410,0
T,3100,66348,-67417,-2553,-1348,217,13093,1420,-1420,0
T,3120,66848,-67925,-2532,814,3516,8180,1430,-1430,0
T,3140,67346,-68430,-2543,158,-512,10974,1441,-1442,0
T,3160,67845,-68938,-2554,2947,1808,12388,1451,-1452,0
T,3180,68342,-69443,-2517,2051,3008,10253,1461,-1463,0
T,3200,68836,-69945,-2505,-377,2193,6215,1471,-1474,0
T,3220,69331,-70448,-2526,-1244,3271,12154,1481,-1485,0
T,3240,69824,-70949,-2520,-242,1523,7564,1491,-1496,0
T,3260,70318,-71450,-2492,1743,-1607,239,1502,-1507,0
T,3280,70813,-71954,-2536,-1780,2572,9212,1512,-1517,0
T,3300,71310,-72488,-2526,-190,2304,10970,1523,-1527,0
T,3320,71807,-72993,-2522,-1199,4050,11025,1535,-1537,0
T,3340,72334,-73499,-2536,-1431,2737,8271,1546,-1547,0
T,3360,72833,-74007,-2531,859,-1497,7110,1556,-1557,0
T,3380,73328,-74509,-2533,-1671,6845,10760,1566,-1566,0
T,3400,73822,-75011,-2520,-1694,507,6692,1577,-1577,0
T,3420,74316,-75513,-2532,482,4323,13131,1587,-1588,0
T,3440,74807,-76012,-2501,-1943,2304,8011,1597,-1598,0
T,3460,75299,-76512,-2502,-1609,418,9694,1607,-1609,0
T,3480,75790,-77011,-2501,670,2689,13855,1617,-1620,0
T,3500,76280,-77509,-2469,-2216,3678,9926,1628,-1631,0
T,3520,76769,-78006,-2481,-2770,4157,6157,1638,-1642,0
T,3540,77261,-78506,-2509,2075,1012,12317,1649,-1654,0
T,3560,77751,-79004,-2471,-1408,5295,6666,1660,-1665,0
T,3580,78239,-79499,-2481,-1464,3494,10537,1671,-1675,0
T,3600,78727,-79995,-2484,2733,150,10110,1681,-1685,0
T,3620,79212,-80488,-2457,2767,-1495,2413,1692,-1695,0
T,3640,79695,-80979,-2473,2122,3951,3979,1703,-1704,0
T,3660,80183,-81475,-2493,-123,54,6845,1714,-1713,0
T,3680,80675,-81975,-2501,-2223,3959,4445,1725,-1722,0
T,3700,81167,-82475,-2508,-960,1949,6499,1736,-1732,0
T,3720,81663,-82979,-2531,1769,2033,9458,1746,-1742,0
T,3740,82162,-83515,-2543,2023,-333,8505,1756,-1753,0
T,3760,82688,-84021,-2541,-419,3269,11614,1766,-1763,0
T,3780,83188,-84528,-2565,347,1590,14925,1776,-1774,0
T,3800,83690,-85038,-2561,665,-865,5849,1787,-1785,0
T,3820,84193,-85550,-2576,-1858,4356,14908,1798,-1795,0
T,3840,84700,-86065,-2585,-52,3113,13489,1809,-1810,0
T,3860,85208,-86581,-2583,-344,2797,11674,1818,-1819,0
T,3880,85712,-87093,-2567,1409,6011,13279,1829,-1830,0
T,3900,86218,-87607,-2572,-1291,3403,5202,1839,-1841,0
T,3920,86726,-88123,-2579,-547,3262,14519,1849,-1852,0
T,3940,87233,-88639,-2589,1771,1805,9071,1860,-1866,0
T,3960,87743,-89157,-2592,42,4550,6580,1870,-1874,0
T,3980,88255,-89677,-2609,-908,2821,9448,1881,-1884,0
T,4000,88769,-90199,-2616,-500,1693,12063,1893,-1895,0
T,4020,89286,-90724,-2639,326,953,5892,1904,-1905,0
T,4040,89801,-91248,-2624,-1604,3168,10826,1914,-1915,0
T,4060,90311,-91766,-2584,-746,2634,12821,1925,-1924,0
T,4080,90818,-92281,-2581,-100,1736,6294,1935,-1937,0
T,4100,91324,-92796,-2565,-47,1992,6657,1945,-1949,0
T,4120,91827,-93307,-2565,-1746,-496,7385,1955,-1956,0
T,4140,92331,-93819,-2565,-1076,857,4412,1965,-1970,0
T,4160,92837,-94333,-2577,-327,2201,5470,1975,-1981,0
T,4180,93344,-94848,-2584,-4156,3980,10413,1986,-1990,0
T,4200,93852,-95394,-2592,-675,4294,12032,1996,-2001,0
T,4220,94390,-95910,-2579,1911,131,8574,2007,-2012,0
T,4240,94894,-96423,-2546,-377,2694,10432,2018,-2026,0
T,4260,95394,-96931,-2555,2596,1137,11192,2029,-2034,0
T,4280,95897,-97442,-2576,3638,847,12603,2039,-2044,0
T,4300,96400,-97953,-2543,-877,1180,7445,2049,-2054,0
T,4320,96899,-98460,-2536,1444,-4826,7008,2060,-2063,0
T,4340,97403,-98972,-2574,-1216,1477,4846,2071,-2075,0
T,4360,97908,-99485,-2569,-1147,557,7932,2081,-2082,0
T,4380,98411,-99997,-2561,-1289,8512,19744,2092,-2092,0
T,4400,98913,-100507,-2559,2833,1892,10762,2102,-2102,0
T,4420,99414,-101015,-2535,3001,-1873,5658,2113,-2112,0
T,4440,99910,-101520,-2531,-1616,3559,6559,2123,-2125,0
T,4460,100406,-102023,-2529,-2604,2454,9417,2133,-2135,0
T,4480,100901,-102527,-2515,480,3274,9453,2143,-2143,0
T,4500,101398,-103031,-2541,1222,318,7652,2152,-2153,0
T,4520,101895,-103536,-2546,-853,2481,12842,2164,-2167,0
T,4540,102390,-104040,-2534,733,-1569,8978,2174,-2178,0
T,4560,102882,-104540,-2503,-3230,4074,13458,2184,-2186,0
T,4580,103375,-105041,-2508,-2734,1927,9814,2194,-2197,0
T,4600,103869,-105542,-2506,75,2318,10196,2204,-2210,0
T,4620,104361,-106042,-2508,-1585,191,3440,2214,-2221,0
T,4640,104849,-106567,-2496,324,1865,10623,2224,-2232,0
T,4660,105339,-107036,-2504,-900,3178,15003,2235,-2239,0
T,4680,105860,-107565,-2503,-251,3877,8343,2246,-2249,0
T,4700,106351,-108065,-2490,-1746,1020,4717,2258,-2259,0
T,4720,106849,-108570,-2523,-348,3451,13422,2267,-2272,0
T,4740,107345,-109074,-2519,1463,-1550,9088,2278,-2282,0
T,4760,107837,-109575,-2502,262,2979,11715,2288,-2289,0
T,4780,108333,-110078,-2529,-88,3247,12169,2299,-2299,0
T,4800,108830,-110584,-2513,-495,5269,11801,2309,-2312,0
T,4820,109324,-111086,-2532,942,1374,16276,2318,-2323,0
T,4840,109821,-111590,-2540,2712,-587,8297,2329,-2333,0
T,4860,110320,-112098,-2537,1177,-438,9635,2339,-2342,0
T,4880,110820,-112605,-2522,-1398,7080,4634,2350,-2354,0
T,4900,111319,-113113,-2554,-1344,1829,11020,2360,-2367,0
T,4920,111819,-113621,-2527,748,-1265,7086,2371,-2379,0
T,4940,112317,-114126,-2519,288,3932,4204,2382,-2389,0
T,4960,112813,-114630,-2536,2307,-93,9214,2393,-2398,0
T,4980,113309,-115135,-2532,511,1719,14542,2403,-2409,0
T,5000,113800,-115633,-2470,-1917,543,7471,2413,-2420,0
T,5020,114286,-116127,-2472,1260,2888,5704,2424,-2429,0
T,5040,114773,-116623,-2485,1786,-563,1028,2435,-2438,0
T,5060,115264,-117121,-2503,-2071,148,2217,2446,-2447,0
T,5080,115753,-117618,-2484,-3144,4811,6358,2457,-2457,0
T,5100,116244,-118117,-2496,-555,3714,11715,2467,-2467,0
T,5120,116763,-118644,-2502,30,1331,7187,2477,-2477,0
T,5140,117253,-119142,-2497,982,208,5281,2487,-2488,0
T,5160,117746,-119643,-2501,-462,6699,10057,2497,-2495,0
T,5180,118240,-120145,-2507,-97,342,8027,2508,-2508,0
T,5200,118734,-120647,-2529,70,2512,15075,2518,-2520,0
T,5220,119231,-121151,-2519,2172,-302,5030,2529,-2531,0
T,5240,119727,-121656,-2525,1255,840,14308,2539,-2542,0
T,5260,120221,-122158,-2528,2359,3245,18323,2549,-2553,0
T,5280,120717,-122661,-2518,-507,5197,13979,2559,-2564,0
T,5300,121213,-123166,-2529,2281,5204,18173,2569,-2575,0
T,5320,121709,-123670,-2542,582,3159,16343,2580,-2586,0
T,5340,122210,-124179,-2565,333,2450,9181,2591,-2596,0
T,5360,122715,-124692,-2569,584,3995,11863,2602,-2606,0
T,5380,123219,-125204,-2567,264,1508,11101,2614,-2616,0
T,5400,123725,-125719,-2600,513,301,10755,2624,-2626,0
T,5420,124234,-126235,-2583,-204,-338,8326,2635,-2637,0
T,5440,124741,-126750,-2598,395,1262,14270,2645,-2646,0
T,5460,125247,-127265,-2579,-2028,2646,14086,2656,-2657,0
T,5480,125755,-127781,-2588,-808,2622,13102,2666,-2668,0
T,5500,126260,-128295,-2581,-2201,4622,10155,2676,-2678,0
T,5520,126769,-128812,-2601,-585,1686,9620,2686,-2690,0
T,5540,127312,-129363,-2627,1281,1063,9391,2696,-2701,0
T,5560,127795,-129884,-2591,-609,287,5847,2706,-2713,0
T,5580,128337,-130404,-2634,3551,-2972,12665,2717,-2724,0
T,5600,128852,-130928,-2619,324,3765,9620,2728,-2736,0
T,5620,129365,-131449,-2604,1710,550,11896,2739,-2747,0
T,5640,129873,-131966,-2582,1620,2131,11364,2750,-2758,0
T,5660,130380,-132480,-2575,-282,2210,8374,2760,-2768,0
T,5680,130883,-132991,-2545,-1251,799,5040,2770,-2778,0
T,5700,131382,-133499,-2559,-2156,3204,9754,2781,-2788,0
T,5720,131887,-134012,-2573,-588,2248,6986,2792,-2797,0
T,5740,132397,-134530,-2584,-1919,5346,3891,2802,-2806,0
T,5760,132906,-135047,-2584,-2635,5312,12720,2814,-2816,0
T,5780,133414,-135563,-2565,-1400,7092,15390,2824,-2826,0
T,5800,133915,-136073,-2598,776,-6161,10819,2834,-2836,0
T,5820,134413,-136579,-2520,-1412,3786,8937,2843,-2847,0
T,5840,134911,-137085,-2538,-1306,2047,4875,2853,-2857,0
T,5860,135410,-137591,-2547,-642,1827,13267,2864,-2867,0
T,5880,135908,-138097,-2544,-943,2821,9945,2874,-2878,0
T,5900,136407,-138605,-2547,513,2569,6475,2885,-2888,0
T,5920,136907,-139113,-2555,-491,-31,5985,2895,-2899,0
T,5940,137402,-139616,-2520,-2682,4004,15471,2905,-2910,0
T,5960,137893,-140115,-2529,-2547,3892,13972,2915,-2920,0
T,5980,138386,-140616,-2516,-457,1190,8481,2925,-2932,0
T,6000,138879,-141116,-2492,-720,6462,12871,2935,-2943,0
T,6020,139398,-141644,-2481,-851,5794,13150,2945,-2953,0
T,6040,139889,-142143,-2519,-1005,3456,9231,2956,-2963,0
T,6060,140381,-142643,-2517,1722,-1744,10203,2967,-2973,0
T,6080,140874,-143144,-2537,1662,-606,4132,2978,-2982,0
T,6100,141372,-143650,-2552,6,2785,17241,2990,-2993,0
T,6120,141868,-144154,-2524,461,-963,4631,2999,-3003,0
T,6140,142361,-144655,-2494,1018,-1190,2234,3010,-3014,0
T,6160,142856,-145158,-2540,-1552,5554,14220,3020,-3023,0
T,6180,143353,-145663,-2525,113,1012,8911,3030,-3033,0
T,6200,143852,-146169,-2557,-325,4524,11235,3039,-3044,0
T,6220,144355,-146681,-2572,1013,-443,10516,3049,-3055,0
T,6240,144860,-147193,-2575,1174,3154,13059,3059,-3067,0
T,6260,145365,-147707,-2550,2591,-208,3265,3070,-3078,0
T,6280,145872,-148222,-2596,937,2045,8221,3082,-3089,0
T,6300,146378,-148736,-2577,-1334,7053,13702,3092,-3100,0
T,6320,146877,-149243,-2543,-1315,1638,12763,3103,-3111,0
T,6340,147374,-149748,-2528,705,768,10965,3113,-3122,0
T,6360,147871,-150253,-2531,1475,2859,11753,3124,-3131,0
T,6380,148361,-150751,-2485,-630,-611,7777,3134,-3140,0
T,6400,148847,-151245,-2464,-1597,-1425,11292,3144,-3149,0
T,6420,149335,-151741,-2488,2485,3235,18610,3155,-3158,0
T,6440,149824,-152267,-2492,-1846,447,8944,3167,-3168,0
T,6460,150313,-152764,-2515,-299,2224,12606,3177,-3178,0
T,6480,150831,-153261,-2469,-948,1082,7101,3187,-3187,0
T,6500,151316,-153754,-2483,2466,-1528,13009,3197,-3197,0
T,6520,151800,-154246,-2498,2236,2407,19309,3207,-3207,0
T,6540,152287,-154741,-2499,-5,370,10977,3217,-3218,0
T,6560,152778,-155239,-2481,-1704,1214,7533,3228,-3228,0
T,6580,153270,-155740,-2516,226,2311,10951,3238,-3239,0
T,6600,153766,-156244,-2524,369,4205,12973,3249,-3250,0
T,6620,154262,-156747,-2516,6,3068,13095,3259,-3261,0
T,6640,154754,-157248,-2504,-832,3223,9651,3269,-3272,0
T,6660,155250,-157751,-2515,681,-668,7418,3279,-3283,0
T,6680,155747,-158256,-2527,1461,-3008,5976,3289,-3294,0
T,6700,156242,-158759,-2527,16,1111,14082,3300,-3305,0
T,6720,156738,-159263,-2539,25,-1835,12269,3310,-3315,0
T,6740,157236,-159770,-2557,1710,2603,16288,3321,-3326,0
T,6760,157739,-160280,-2565,-107,3767,9926,3333,-3336,0
T,6780,158243,-160792,-2575,-154,2866,9456,3343,-3346,0
T,6800,158749,-161307,-2567,-969,3951,10399,3354,-3356,0
T,6820,159253,-161819,-2575,1551,1362,12575,3364,-3366,0
T,6840,159757,-162331,-2579,108,1803,13953,3375,-3376,0
T,6860,160265,-162847,-2589,-2315,3029,7192,3386,-3387,0
T,6880,160769,-163360,-2563,-1488,1762,4247,3395,-3398,0
T,6900,161275,-163873,-2581,724,272,5279,3405,-3409,0
T,6920,161812,-164419,-2581,-983,1693,9033,3415,-3420,0
T,6940,162321,-164936,-2577,-1569,2174,9580,3426,-3432,0
T,6960,162829,-165452,-2591,717,2304,11378,3436,-3443,0
T,6980,163341,-165972,-2596,883,3235,14870,3447,-3454,0
T,7000,163852,-166492,-2602,-275,2833,14879,3458,-3466,0
T,7020,164363,-167012,-2614,1399,-419,9448,3469,-3477,0
T,7040,164875,-167531,-2598,1034,2998,5477,3480,-3487,0
T,7060,165378,-168043,-2545,3662,-244,7144,3490,-3497,0
T,7080,165874,-168546,-2517,1070,514,4338,3500,-3507,0
T,7100,166372,-169053,-2536,-2429,5187,11390,3511,-3516,0
T,7120,166875,-169564,-2561,345,-1844,14662,3522,-3525,0
T,7140,167380,-170077,-2569,-1235,3899,7961,3533,-3534,0
T,7160,167888,-170593,-2593,-1140,2797,15591,3542,-3545,0
T,7180,168393,-171106,-2549,-1358,1892,6518,3553,-3555,0
T,7200,168896,-171617,-2562,2245,1204,8765,3563,-3566,0
T,7220,169397,-172127,-2579,2461,-81,7091,3573,-3575,0
T,7240,169900,-172637,-2556,-3151,4469,10552,3583,-3586,0
T,7260,170401,-173146,-2546,-2358,3166,14872,3593,-3596,0
T,7280,170899,-173653,-2531,748,493,11154,3603,-3606,0
T,7300,171392,-174153,-2491,383,1480,3521,3612,-3617,0
T,7320,171873,-174642,-2422,3018,2383,10198,3621,-3626,0
T,7340,172369,-175146,-2341,-1360,5429,8199,3629,-3636,0
T,7360,172803,-175614,-2334,3551,965,12954,3637,-3646,0
T,7380,173279,-176071,-2262,665,1204,11029,3645,-3654,0
T,7400,173716,-176514,-2179,-346,4241,5773,3654,-3662,0
T,7420,174140,-176946,-2132,816,-24,4579,3661,-3670,0
T,7440,174556,-177368,-2088,-1346,8194,17258,3669,-3677,0
T,7460,174957,-177776,-2016,1146,-651,10865,3676,-3684,0
T,7480,175343,-178168,-1937,1243,1657,12749,3684,-3691,0
T,7500,175713,-178544,-1850,-64,5053,12575,3692,-3697,0
T,7520,176069,-178906,-1789,2660,-208,10057,3698,-3703,0
T,7540,176407,-179249,-1670,302,2488,14356,3704,-3709,0
T,7560,176725,-179573,-1579,478,4122,12496,3711,-3715,0
T,7580,177027,-179879,-1486,1672,-2139,8374,3716,-3720,0
T,7600,177310,-180167,-1400,1053,2660,11896,3722,-3723,0
T,7620,177576,-180437,-1321,1392,169,8517,3726,-3729,0
T,7640,177827,-180692,-1239,722,23,8121,3732,-3735,0
T,7660,178065,-180934,-1174,985,402,8410,3736,-3737,0
T,7680,178289,-181161,-1108,1669,-1921,6131,3740,-3741,0
T,7700,178499,-181374,-1035,196,2294,9735,3744,-3745,0
T,7720,178692,-181571,-941,-289,2057,10676,3748,-3748,0
T,7740,178869,-181750,-863,606,2311,10036,3751,-3752,0
T,7760,179032,-181917,-806,767,-1080,9140,3754,-3754,0
T,7780,179185,-182072,-744,172,998,11206,3757,-3756,0
T,7800,179333,-182222,-676,717,-1020,9303,3760,-3759,0
T,7820,179459,-182351,-612,1392,-512,8701,3762,-3761,0
T,7840,179573,-182467,-554,425,-970,9379,3764,-3764,0
T,7860,179673,-182568,-463,752,727,9307,3766,-3766,0
T,7880,179756,-182652,-386,520,665,9821,3768,-3767,0
T,7900,179825,-182722,-324,409,-179,9499,3769,-3768,0
T,7920,179881,-182779,-257,786,553,9451,3770,-3769,0
T,7940,179920,-182819,-147,814,356,10076,3771,-3769,0
T,7960,179939,-182838,-53,788,-124,9520,3772,-3770,0
T,7980,179943,-182842,1,324,-395,9928,3772,-3769,0
T,8000,179942,-182841,1,-225,263,9766,3772,-3770,0
# 記録の数: 401 / 間隔: 20 ms
# 止まった時 rotation Z: -1828.41 / モーター 左/右: 3772 -3770 度
# 命令: 1800 度 / 止まった時のジャイロ h1: 1799.42 度
# 定規に合わせ直した時のジャイロ h2: 1773.35 度
# 本当のズレ（＋は回り足りない）: -26.07 度（ジャイロの目盛りで）
# モーターで回ったときのジャイロの 1 周の読み: 354.67 度（360 なら目盛りは合っている）
# 電池: 7845 mV

==================================================
終了コード: 0
終了日時  : 2026-09-19 11:19:12
実行時間  : 30.6 秒
