=== 実行ログ ===
スクリプト: run_gyro_state_trace.py
実行日時 : 2026-09-19 11:15:22
ハブ     : --name Pybricks Hub3
==================================================

Searching for Pybricks Hub3...

  0%|          | 0.00/7.45k [00:00<?, ?B/s]
 14%|█▎        | 1.01k/7.45k [00:00<00:00, 9.87kB/s]
 27%|██▋       | 2.03k/7.45k [00:00<00:00, 8.78kB/s]
 41%|████      | 3.04k/7.45k [00:00<00:00, 8.51kB/s]
 54%|█████▍    | 4.06k/7.45k [00:00<00:00, 8.79kB/s]
 68%|██████▊   | 5.07k/7.45k [00:00<00:00, 8.55kB/s]
 82%|████████▏ | 6.08k/7.45k [00:00<00:00, 8.12kB/s]
 95%|█████████▌| 7.10k/7.45k [00:00<00:00, 6.29kB/s]
100%|██████████| 7.45k/7.45k [00:01<00:00, 5.90kB/s]
=== ロボット初期化開始 ===
★ 走行設定: new （new＝今年の値 / old＝昨年の速度・加速度・PID）
✓ 機体の校正表: Pybricks Hub3 {'heading_correction': 365.8, 'wheel': 62.32, 'axle': 114.48}
✓ ハブ設定完了
✓ モーター設定完了
✓ デフォルト設定適用: 直進={'straight_acceleration': 800, 'straight_speed': 550}, 回転={'turn_acceleration': 313, 'turn_rate': 250}
✓ ロボットパラメータ設定完了
✓ PID制御設定完了（Pybricks の既定値を使用）
✓ センサー初期化完了
✓ モーター角度リセット完了: 全モーター=0°
=== ロボット初期化完了 ===
# imu.settings: (2.0, 2500.0, (0.107595, -1.197198, -0.486059), (366.1989, 351.5872, 362.0139), (10031.61, -9781.568, 9785.638, -9813.727, 9523.833, -10133.98), 365.8)
# 前: tilt (-0.2707714, 0.2412572) / 角速度 Matrix([
    [   0.112],
    [  -0.023],
    [  -0.095],
])
# ★いま★ ライトが緑になったら（ピーと鳴ったら）、手で定規にぴったり当て直して、手を離してね
# 列: T,ms,heading*100,rotZ*100,wz*10,ax,ay,az,left,right,stationary
T,0,-1,0,0,63,35,9823,0,0,1
T,20,-1,0,-1,91,6,9823,0,0,0
T,40,-1,0,0,39,114,9668,0,0,0
T,60,-1,0,-1,106,83,9756,0,0,0
T,80,-1,0,1,-14,40,9799,0,0,0
T,100,-1,0,0,87,83,9850,0,0,0
T,120,-1,0,-1,-26,169,9828,0,0,0
T,140,-1,0,0,101,9,9821,0,0,0
T,160,-1,0,0,1,11,9764,0,0,0
T,180,-1,0,-1,96,61,9826,0,0,0
T,200,-1,0,0,56,2,9835,0,0,0
T,220,1,-2,-43,-237,878,9900,0,0,0
T,240,19,-21,-133,-1114,-1042,9018,2,0,0
T,260,52,-55,-204,-1810,-1025,10277,4,0,0
T,280,109,-112,-406,-941,-845,9773,6,-2,0
T,300,211,-223,-618,-424,-1624,8820,8,-7,0
T,320,361,-368,-806,-1948,1068,11932,11,-12,0
T,340,540,-550,-988,-1038,-824,9959,16,-18,0
T,360,755,-769,-1147,-1822,2768,13047,22,-24,0
T,380,997,-1015,-1260,122,457,9448,27,-30,0
T,400,1254,-1276,-1308,-550,-905,10886,33,-37,0
T,420,1523,-1549,-1394,1188,-2263,6659,40,-43,0
T,440,1804,-1835,-1438,-1152,854,9568,47,-50,0
T,460,2096,-2132,-1499,-1149,97,8818,53,-57,0
T,480,2401,-2442,-1558,177,-469,10807,60,-64,0
T,500,2718,-2764,-1622,-88,667,11457,67,-71,0
T,520,3043,-3094,-1652,582,-292,6248,74,-78,0
T,540,3376,-3432,-1707,-479,1975,8522,82,-85,0
T,560,3722,-3784,-1765,-1422,2656,11323,89,-93,0
T,580,4076,-4143,-1799,32,744,12832,97,-102,0
T,600,4437,-4510,-1819,2039,1046,9850,105,-110,0
T,620,4802,-4881,-1849,-616,1388,7371,112,-118,0
T,640,5176,-5261,-1902,-190,2368,16475,121,-127,0
T,660,5557,-5648,-1920,-2445,4977,12013,130,-136,0
T,680,5944,-6041,-1963,468,1487,10740,139,-145,0
T,700,6337,-6441,-1998,-1640,4215,13773,149,-154,0
T,720,6740,-6851,-2044,-436,-785,4956,158,-164,0
T,740,7152,-7269,-2078,-1069,3755,8775,167,-173,0
T,760,7572,-7721,-2142,383,1501,6267,178,-183,0
T,780,8027,-8158,-2188,-1208,1585,8892,187,-192,0
T,800,8468,-8606,-2247,-675,1523,2962,198,-202,0
T,820,8921,-9067,-2300,-3279,2716,9790,209,-212,0
T,840,9385,-9538,-2369,-1085,2579,19171,220,-225,0
T,860,9858,-10019,-2416,-289,3175,12123,231,-233,0
T,880,10341,-10509,-2459,-2761,3417,14349,243,-244,0
T,900,10833,-11009,-2499,-1663,797,5197,254,-256,0
T,920,11334,-11519,-2521,-2779,2931,8746,264,-268,0
T,940,11838,-12031,-2522,1013,-1612,1768,275,-281,0
T,960,12343,-12544,-2536,205,-759,4870,287,-292,0
T,980,12852,-13061,-2566,-1557,4237,5548,298,-304,0
T,1000,13364,-13581,-2570,-2872,4876,8407,308,-317,0
T,1020,13878,-14103,-2584,-2147,2265,12054,319,-329,0
T,1040,14392,-14626,-2561,-422,299,11005,330,-339,0
T,1060,14903,-15144,-2577,2326,287,10769,342,-350,0
T,1080,15417,-15668,-2606,117,921,9255,353,-360,0
T,1100,15936,-16195,-2621,1506,191,9539,365,-370,0
T,1120,16454,-16721,-2605,-228,4169,12223,376,-381,0
T,1140,16974,-17249,-2617,-1054,172,10141,386,-392,0
T,1160,17494,-17778,-2621,295,1132,8921,397,-403,0
T,1180,18015,-18307,-2623,-52,2253,9095,409,-414,0
T,1200,18537,-18868,-2621,-1384,2023,10222,420,-425,0
T,1220,19088,-19398,-2614,-1263,3516,7882,432,-436,0
T,1240,19610,-19928,-2625,-502,3235,11552,442,-448,0
T,1260,20132,-20458,-2628,416,2102,9809,453,-459,0
T,1280,20651,-20985,-2608,918,1587,6501,463,-470,0
T,1300,21167,-21510,-2591,553,2749,11115,474,-481,0
T,1320,21684,-22035,-2586,1376,3202,6504,485,-492,0
T,1340,22197,-22557,-2577,2693,1056,9467,496,-504,0
T,1360,22705,-23073,-2538,767,-239,7120,507,-515,0
T,1380,23211,-23587,-2547,1868,2296,10160,518,-525,0
T,1400,23712,-24096,-2513,1068,1508,11094,528,-536,0
T,1420,24209,-24601,-2498,295,-709,7017,538,-546,0
T,1440,24706,-25105,-2491,-1190,3101,3060,547,-556,0
T,1460,25204,-25612,-2516,-3614,3626,7230,558,-566,0
T,1480,25706,-26122,-2523,-1595,3839,8725,569,-576,0
T,1500,26213,-26637,-2574,-228,4402,9460,580,-586,0
T,1520,26725,-27157,-2570,385,1209,17571,591,-597,0
T,1540,27236,-27676,-2558,679,10007,-483,603,-607,0
T,1560,27752,-28201,-2572,281,-1990,3592,613,-618,0
T,1580,28266,-28723,-2577,-1616,-603,3631,623,-629,0
T,1600,28778,-29275,-2584,2063,167,9601,634,-641,0
T,1620,29294,-29798,-2577,665,2572,4658,645,-652,0
T,1640,29807,-30320,-2573,3186,-1035,11877,655,-664,0
T,1660,30314,-30835,-2543,1103,3113,9200,664,-675,0
T,1680,30850,-31349,-2546,-341,1901,13088,675,-686,0
T,1700,31358,-31865,-2556,2274,2088,10487,686,-696,0
T,1720,31860,-32375,-2502,-1012,2294,7698,696,-706,0
T,1740,32357,-32880,-2499,603,1333,5076,708,-715,0
T,1760,32857,-33388,-2518,-1069,-239,12214,720,-724,0
T,1780,33358,-33898,-2527,-1303,4483,9991,732,-733,0
T,1800,33862,-34409,-2549,1643,852,10564,743,-743,0
T,1820,34367,-34923,-2527,-1005,1738,8266,753,-753,0
T,1840,34866,-35429,-2502,264,579,8519,763,-763,0
T,1860,35362,-35933,-2501,-934,869,2821,773,-773,0
T,1880,35860,-36439,-2509,-2114,3403,8326,784,-783,0
T,1900,36358,-36946,-2510,1278,-45,4701,794,-793,0
T,1920,36857,-37453,-2522,-927,2907,11748,804,-803,0
T,1940,37358,-37961,-2520,-879,2775,7039,815,-814,0
T,1960,37859,-38471,-2522,13,4265,11667,825,-826,0
T,1980,38357,-38977,-2492,-265,1329,8061,835,-836,0
T,2000,38853,-39481,-2493,629,2155,9823,845,-848,0
T,2020,39348,-39983,-2479,-280,3183,8751,856,-859,0
T,2040,39836,-40480,-2438,-808,948,10728,867,-869,0
T,2060,40319,-40970,-2403,2004,-1154,7662,877,-880,0
T,2080,40798,-41457,-2389,-43,6522,15737,887,-890,0
T,2100,41271,-41967,-2406,-62,-486,3497,897,-900,0
T,2120,41778,-42453,-2415,1025,754,10693,907,-909,0
T,2140,42257,-42940,-2412,-1938,3729,14829,917,-920,0
T,2160,42737,-43427,-2408,-2116,2668,13293,927,-930,0
T,2180,43221,-43919,-2440,-507,1784,10239,938,-940,0
T,2200,43709,-44415,-2465,-1512,1786,7719,949,-949,0
T,2220,44202,-44916,-2488,-1057,2771,7903,961,-960,0
T,2240,44697,-45419,-2497,-1926,4596,12565,972,-969,0
T,2260,45197,-45927,-2525,-1047,-579,13795,982,-981,0
T,2280,45698,-46436,-2521,-855,1971,9809,992,-992,0
T,2300,46200,-46947,-2532,-1493,4505,14667,1003,-1003,0
T,2320,46703,-47457,-2519,1380,3465,17017,1013,-1015,0
T,2340,47205,-47968,-2529,-943,5940,14511,1023,-1026,0
T,2360,47711,-48481,-2555,-457,5597,15901,1033,-1037,0
T,2380,48218,-48997,-2567,653,3664,16508,1043,-1048,0
T,2400,48729,-49515,-2557,-1280,3448,10989,1055,-1058,0
T,2420,49237,-50032,-2559,-3867,4902,6399,1065,-1068,0
T,2440,49746,-50549,-2545,-1585,2629,6212,1077,-1078,0
T,2460,50257,-51069,-2573,696,5750,6160,1088,-1087,0
T,2480,50770,-51590,-2574,-90,1427,14688,1098,-1097,0
T,2500,51283,-52141,-2593,16,263,10566,1108,-1107,0
T,2520,51795,-52662,-2586,-332,409,12302,1118,-1118,0
T,2540,52309,-53184,-2577,-1066,2694,8672,1129,-1128,0
T,2560,52823,-53706,-2584,1399,1084,10619,1139,-1138,0
T,2580,53367,-54228,-2587,-36,241,5914,1151,-1149,0
T,2600,53880,-54750,-2577,-446,-132,13224,1161,-1159,0
T,2620,54394,-55272,-2578,-2540,1199,4455,1171,-1170,0
T,2640,54909,-55795,-2585,-360,2299,11478,1181,-1181,0
T,2660,55418,-56313,-2555,293,3139,6728,1191,-1192,0
T,2680,55925,-56827,-2552,-969,706,10757,1201,-1203,0
T,2700,56428,-57339,-2525,-441,1216,12374,1212,-1214,0
T,2720,56927,-57846,-2498,-12,2881,10208,1222,-1225,0
T,2740,57426,-58353,-2506,-367,1159,5933,1233,-1236,0
T,2760,57923,-58858,-2501,-424,679,12092,1243,-1246,0
T,2780,58418,-59361,-2493,-182,1959,11911,1252,-1256,0
T,2800,58915,-59865,-2496,-92,895,5071,1262,-1266,0
T,2820,59412,-60371,-2491,610,4804,10069,1272,-1276,0
T,2840,59908,-60875,-2482,-137,5252,12744,1282,-1286,0
T,2860,60402,-61377,-2491,-64,1221,13953,1293,-1296,0
T,2880,60901,-61884,-2509,1821,2095,6062,1304,-1305,0
T,2900,61403,-62394,-2512,2060,248,5283,1315,-1316,0
T,2920,61910,-62909,-2560,30,287,10590,1325,-1325,0
T,2940,62422,-63430,-2570,-168,3389,10891,1336,-1337,0
T,2960,62930,-63946,-2558,1769,-3267,4992,1346,-1347,0
T,2980,63438,-64462,-2520,1722,-728,17860,1356,-1359,0
T,3000,63975,-65008,-2548,-552,3156,14884,1367,-1370,0
T,3020,64481,-65522,-2525,-1557,3980,8667,1377,-1381,0
T,3040,64985,-66034,-2550,2468,-639,12302,1387,-1392,0
T,3060,65489,-66546,-2525,-1000,5092,13709,1397,-1403,0
T,3080,65992,-67057,-2516,1722,-1868,4433,1407,-1413,0
T,3100,66495,-67568,-2518,-64,3130,7987,1417,-1423,0
T,3120,66997,-68078,-2525,-403,-647,10915,1428,-1431,0
T,3140,67501,-68591,-2541,883,3595,9733,1439,-1441,0
T,3160,68002,-69100,-2517,-1652,1635,9305,1449,-1450,0
T,3180,68503,-69608,-2536,622,2033,10017,1459,-1460,0
T,3200,69004,-70117,-2521,-652,3573,10019,1469,-1469,0
T,3220,69502,-70623,-2498,160,363,12097,1479,-1479,0
T,3240,69999,-71129,-2498,-1934,5985,7648,1490,-1489,0
T,3260,70497,-71634,-2507,-1578,3029,8553,1500,-1499,0
T,3280,70993,-72138,-2478,1985,-1293,827,1511,-1510,0
T,3300,71489,-72643,-2491,-761,2536,2188,1521,-1519,0
T,3320,71988,-73150,-2518,-2585,1872,4543,1531,-1531,0
T,3340,72490,-73659,-2504,-306,1386,8039,1540,-1541,0
T,3360,72989,-74167,-2519,2309,263,7039,1550,-1551,0
T,3380,73484,-74669,-2490,-1069,3710,11003,1560,-1563,0
T,3400,73978,-75202,-2477,-419,3008,11309,1571,-1574,0
T,3420,74469,-75699,-2444,42,3422,13814,1582,-1584,0
T,3440,74952,-76190,-2413,196,234,11779,1592,-1595,0
T,3460,75460,-76678,-2404,371,794,7065,1602,-1605,0
T,3480,75937,-77162,-2390,-1671,3844,8436,1612,-1615,0
T,3500,76412,-77645,-2369,-692,1961,10275,1622,-1625,0
T,3520,76886,-78127,-2392,1151,2112,7617,1631,-1635,0
T,3540,77363,-78611,-2406,-1277,-534,5424,1642,-1645,0
T,3560,77842,-79098,-2408,2854,428,9303,1652,-1654,0
T,3580,78323,-79587,-2417,802,3662,9479,1663,-1664,0
T,3600,78806,-80077,-2424,-1154,1671,6105,1674,-1674,0
T,3620,79295,-80574,-2447,-1583,1800,2919,1685,-1684,0
T,3640,79788,-81075,-2482,-528,-714,8691,1696,-1694,0
T,3660,80283,-81578,-2493,596,2342,9601,1706,-1705,0
T,3680,80777,-82080,-2472,-1192,809,8295,1716,-1716,0
T,3700,81272,-82583,-2498,731,2304,13007,1727,-1727,0
T,3720,81767,-83086,-2486,165,998,9042,1737,-1738,0
T,3740,82262,-83589,-2483,-2415,4445,13807,1746,-1749,0
T,3760,82759,-84094,-2509,385,3429,17141,1756,-1760,0
T,3780,83261,-84604,-2530,-533,2912,12252,1767,-1770,0
T,3800,83765,-85116,-2523,494,670,10819,1778,-1780,0
T,3820,84273,-85632,-2570,174,-182,14925,1789,-1790,0
T,3840,84783,-86151,-2556,58,-611,15555,1800,-1799,0
T,3860,85292,-86668,-2566,-2964,2454,11337,1811,-1809,0
T,3880,85805,-87220,-2574,-57,533,6934,1821,-1819,0
T,3900,86320,-87743,-2567,-1216,2826,11402,1831,-1829,0
T,3920,86863,-88264,-2568,-408,2512,7836,1841,-1840,0
T,3940,87372,-88782,-2538,-1097,5439,10814,1852,-1850,0
T,3960,87884,-89301,-2585,688,1738,10487,1863,-1861,0
T,3980,88395,-89821,-2582,2634,1726,11939,1873,-1871,0
T,4000,88908,-90342,-2589,56,888,9016,1883,-1881,0
T,4020,89423,-90865,-2580,480,4627,8156,1893,-1892,0
T,4040,89936,-91387,-2569,-517,1384,10227,1904,-1903,0
T,4060,90447,-91906,-2559,850,-136,4681,1914,-1914,0
T,4080,90957,-92424,-2545,-1661,3561,6635,1923,-1926,0
T,4100,91463,-92938,-2534,4174,2301,13637,1934,-1936,0
T,4120,91962,-93445,-2482,1383,-1871,2487,1945,-1948,0
T,4140,92455,-93946,-2479,-1130,4078,11720,1954,-1958,0
T,4160,92947,-94446,-2444,-1344,3036,2919,1964,-1968,0
T,4180,93438,-94945,-2467,-1400,2797,9692,1974,-1978,0
T,4200,93931,-95446,-2474,-815,2251,10760,1984,-1988,0
T,4220,94428,-95951,-2501,-1431,2442,7094,1994,-1998,0
T,4240,94928,-96459,-2512,1473,3350,11920,2005,-2008,0
T,4260,95429,-96968,-2509,407,2330,10891,2015,-2018,0
T,4280,95931,-97479,-2509,2108,679,15906,2026,-2027,0
T,4300,96434,-98019,-2534,632,2850,3645,2037,-2037,0
T,4320,96939,-98533,-2552,-315,2775,12018,2047,-2047,0
T,4340,97449,-99051,-2585,-948,2016,12391,2057,-2058,0
T,4360,97991,-99571,-2568,-107,2828,11022,2068,-2069,0
T,4380,98501,-100090,-2558,-152,3635,6671,2078,-2081,0
T,4400,99012,-100609,-2578,-2675,1547,16568,2089,-2091,0
T,4420,99519,-101124,-2531,-1322,4958,6138,2098,-2103,0
T,4440,100023,-101637,-2541,1771,-1602,3805,2108,-2114,0
T,4460,100529,-102151,-2547,634,3865,9131,2118,-2125,0
T,4480,101038,-102668,-2568,177,1120,10471,2128,-2135,0
T,4500,101542,-103180,-2543,1,1465,9685,2139,-2145,0
T,4520,102042,-103688,-2506,-794,3254,13754,2149,-2154,0
T,4540,102542,-104196,-2522,3165,315,11786,2160,-2162,0
T,4560,103043,-104705,-2525,98,1609,10043,2170,-2171,0
T,4580,103543,-105213,-2515,1034,1075,8933,2180,-2181,0
T,4600,104042,-105720,-2483,-1817,1930,7015,2190,-2190,0
T,4620,104537,-106223,-2486,899,2246,8347,2200,-2201,0
T,4640,105032,-106726,-2492,738,2907,11698,2211,-2211,0
T,4660,105528,-107230,-2486,-806,2917,10872,2221,-2221,0
T,4680,106024,-107734,-2505,2240,4857,9534,2232,-2231,0
T,4700,106518,-108236,-2493,-2175,3010,9460,2242,-2241,0
T,4720,107015,-108741,-2488,-410,2931,8367,2252,-2252,0
T,4740,107513,-109247,-2512,-182,1750,16632,2261,-2262,0
T,4760,108010,-109782,-2505,390,-795,8930,2271,-2273,0
T,4780,108510,-110290,-2541,854,2668,14979,2281,-2284,0
T,4800,109037,-110795,-2474,13,-237,5833,2292,-2294,0
T,4820,109530,-111297,-2483,-545,2778,8715,2303,-2305,0
T,4840,110021,-111795,-2457,402,-1957,6413,2313,-2315,0
T,4860,110508,-112290,-2429,-1493,5621,12195,2322,-2326,0
T,4880,110989,-112779,-2396,-476,1985,12751,2332,-2336,0
T,4900,111466,-113264,-2426,1091,-690,10354,2342,-2345,0
T,4920,111945,-113750,-2418,117,5178,15460,2352,-2355,0
T,4940,112423,-114236,-2401,-325,1633,9940,2362,-2365,0
T,4960,112900,-114721,-2393,1387,-608,5656,2373,-2374,0
T,4980,113382,-115211,-2438,-386,2347,11462,2384,-2386,0
T,5000,113870,-115706,-2442,32,-3852,7578,2394,-2394,0
T,5020,114361,-116205,-2500,2345,181,11997,2405,-2404,0
T,5040,114858,-116710,-2522,1551,1506,14129,2416,-2414,0
T,5060,115355,-117215,-2483,1774,-397,10420,2425,-2425,0
T,5080,115847,-117715,-2481,392,-2089,9257,2435,-2436,0
T,5100,116338,-118214,-2488,11,3444,18356,2446,-2447,0
T,5120,116829,-118713,-2468,-211,1204,10578,2456,-2458,0
T,5140,117321,-119213,-2465,-1355,2198,6212,2466,-2469,0
T,5160,117814,-119714,-2477,151,-2285,5107,2476,-2480,0
T,5180,118309,-120217,-2487,-1780,4644,7502,2486,-2491,0
T,5200,118804,-120749,-2475,-1415,3175,8309,2497,-2500,0
T,5220,119301,-121254,-2501,-725,1640,5775,2508,-2509,0
T,5240,119804,-121766,-2538,-1815,3848,9374,2519,-2519,0
T,5260,120337,-122277,-2527,-296,2287,7301,2530,-2528,0
T,5280,120840,-122788,-2530,-836,2157,8808,2540,-2538,0
T,5300,121344,-123301,-2534,-979,2732,13955,2550,-2549,0
T,5320,121849,-123814,-2528,-76,-1166,7956,2560,-2558,0
T,5340,122355,-124328,-2559,568,-299,13656,2571,-2569,0
T,5360,122860,-124841,-2551,44,3001,12895,2581,-2579,0
T,5380,123365,-125355,-2529,80,3951,11029,2593,-2590,0
T,5400,123871,-125868,-2540,155,701,9931,2603,-2599,0
T,5420,124379,-126385,-2571,1816,-1511,9549,2613,-2611,0
T,5440,124889,-126902,-2551,264,1187,6148,2623,-2621,0
T,5460,125396,-127418,-2538,667,1990,15378,2632,-2631,0
T,5480,125899,-127930,-2527,-92,873,4553,2642,-2643,0
T,5500,126405,-128443,-2554,1297,-268,10184,2653,-2654,0
T,5520,126908,-128954,-2504,-474,1652,8617,2664,-2665,0
T,5540,127407,-129461,-2507,23,-750,7898,2674,-2676,0
T,5560,127902,-129964,-2479,203,-110,14024,2684,-2686,0
T,5580,128392,-130462,-2474,-258,3367,13828,2694,-2697,0
T,5600,128882,-130961,-2465,-2109,2224,8689,2704,-2707,0
T,5620,129376,-131462,-2483,-351,4538,8359,2714,-2717,0
T,5640,129872,-131966,-2483,1018,1954,7359,2724,-2727,0
T,5660,130368,-132470,-2500,677,1868,10043,2735,-2737,0
T,5680,130868,-133008,-2515,-1590,-112,13539,2745,-2746,0
T,5700,131399,-133518,-2521,-832,2112,11853,2756,-2757,0
T,5720,131904,-134031,-2540,-1924,4411,11151,2767,-2767,0
T,5740,132412,-134547,-2557,639,-242,6081,2777,-2778,0
T,5760,132918,-135061,-2554,1034,988,10122,2787,-2790,0
T,5780,133424,-135576,-2560,530,1094,10086,2798,-2801,0
T,5800,133934,-136093,-2566,793,-96,9286,2808,-2812,0
T,5820,134442,-136610,-2550,575,3508,17709,2818,-2827,0
T,5840,134945,-137121,-2556,2259,-1463,12245,2828,-2835,0
T,5860,135449,-137633,-2527,-2554,4730,8085,2838,-2845,0
T,5880,135954,-138146,-2536,752,1875,10124,2849,-2855,0
T,5900,136458,-138658,-2522,700,679,5044,2860,-2865,0
T,5920,136960,-139168,-2527,267,5590,17193,2870,-2874,0
T,5940,137460,-139676,-2518,141,-115,9761,2881,-2883,0
T,5960,137962,-140187,-2531,1944,2553,13274,2891,-2892,0
T,5980,138468,-140700,-2564,797,2725,11710,2902,-2902,0
T,6000,138975,-141216,-2551,-794,1829,5716,2911,-2911,0
T,6020,139477,-141726,-2509,435,1887,5477,2921,-2924,0
T,6040,139977,-142234,-2513,-1197,5420,7918,2932,-2932,0
T,6060,140479,-142744,-2534,-917,4316,8113,2943,-2942,0
T,6080,140980,-143283,-2520,-325,4057,12090,2954,-2955,0
T,6100,141481,-143792,-2522,-164,378,6814,2963,-2962,0
T,6120,141983,-144302,-2516,-898,4876,12422,2973,-2973,0
T,6140,142512,-144809,-2502,-922,1233,9224,2983,-2984,0
T,6160,143008,-145314,-2502,2624,215,6446,2993,-2994,0
T,6180,143504,-145818,-2495,-1540,5135,12393,3003,-3006,0
T,6200,143999,-146321,-2490,918,-2359,12441,3013,-3016,0
T,6220,144491,-146821,-2468,-2073,5022,10411,3024,-3030,0
T,6240,144978,-147316,-2444,-476,2447,10733,3034,-3040,0
T,6260,145463,-147809,-2425,-2168,4402,10970,3044,-3048,0
T,6280,145945,-148298,-2420,-806,627,4851,3054,-3058,0
T,6300,146427,-148787,-2417,-664,-936,5880,3064,-3070,0
T,6320,146911,-149279,-2442,-1403,3070,12436,3074,-3081,0
T,6340,147393,-149770,-2428,1011,-1415,8577,3084,-3087,0
T,6360,147876,-150260,-2432,518,-1763,6991,3095,-3097,0
T,6380,148363,-150755,-2444,-1135,4220,4861,3106,-3110,0
T,6400,148852,-151252,-2449,646,1853,4581,3117,-3120,0
T,6420,149344,-151752,-2499,177,524,12018,3127,-3126,0
T,6440,149842,-152258,-2497,-57,-2093,14578,3138,-3140,0
T,6460,150340,-152764,-2463,1070,1623,10721,3149,-3151,0
T,6480,150836,-153268,-2490,1177,514,12942,3158,-3160,0
T,6500,151333,-153773,-2492,956,-788,5835,3169,-3173,0
T,6520,151829,-154307,-2511,449,-1734,6499,3178,-3184,0
T,6540,152325,-154781,-2518,-2557,4529,12873,3188,-3195,0
T,6560,152820,-155313,-2485,-1915,1429,8782,3199,-3203,0
T,6580,153346,-155819,-2477,-2327,7614,6043,3209,-3215,0
T,6600,153844,-156324,-2500,442,-7,7877,3220,-3225,0
T,6620,154342,-156830,-2497,-1287,3281,13040,3231,-3234,0
T,6640,154840,-157337,-2482,-1227,2646,5262,3242,-3244,0
T,6660,155344,-157848,-2536,2442,414,4684,3252,-3253,0
T,6680,155849,-158362,-2559,-524,-1056,10110,3262,-3260,0
T,6700,156357,-158878,-2565,2511,-1669,9819,3272,-3273,0
T,6720,156863,-159392,-2546,750,790,10683,3283,-3283,0
T,6740,157369,-159906,-2557,454,1762,12059,3293,-3294,0
T,6760,157876,-160422,-2554,-147,-757,8500,3304,-3304,0
T,6780,158383,-160936,-2535,1577,1142,7244,3315,-3314,0
T,6800,158887,-161449,-2554,2504,-826,7225,3325,-3325,0
T,6820,159393,-161963,-2533,821,3350,8498,3335,-3336,0
T,6841,159929,-162507,-2529,-1502,2076,3621,3345,-3347,0
T,6860,160404,-162990,-2542,2288,3875,9651,3354,-3357,0
T,6880,160907,-163501,-2522,345,2081,11779,3365,-3369,0
T,6900,161408,-164010,-2502,80,-105,9004,3375,-3380,0
T,6920,161904,-164515,-2478,354,1796,11039,3386,-3391,0
T,6940,162399,-165017,-2479,1264,-1277,5283,3396,-3401,0
T,6960,162892,-165518,-2465,-517,2795,10289,3406,-3412,0
T,6980,163381,-166044,-2438,551,4215,5823,3416,-3422,0
T,7000,163871,-166542,-2472,399,4031,17900,3426,-3432,0
T,7020,164392,-167042,-2471,-564,-819,4464,3436,-3442,0
T,7040,164885,-167544,-2493,-21,2042,7581,3446,-3452,0
T,7060,165383,-168049,-2511,1264,553,11493,3457,-3462,0
T,7080,165885,-168560,-2540,-656,3108,10642,3468,-3471,0
T,7100,166392,-169074,-2545,-1121,5592,11643,3479,-3481,0
T,7120,166903,-169594,-2569,1070,-831,3320,3490,-3492,0
T,7140,167415,-170113,-2569,-2204,2045,10210,3500,-3503,0
T,7160,167921,-170628,-2545,1665,797,4619,3510,-3514,0
T,7180,168425,-171141,-2552,120,1345,11629,3520,-3525,0
T,7200,168932,-171656,-2549,-1803,4924,18684,3530,-3536,0
T,7220,169437,-172169,-2536,-1149,6146,14382,3540,-3548,0
T,7240,169939,-172679,-2506,-2595,3482,7992,3550,-3558,0
T,7260,170439,-173187,-2478,-3092,7719,3884,3559,-3569,0
T,7280,170933,-173689,-2458,-962,1044,4464,3569,-3578,0
T,7300,171419,-174183,-2434,845,2421,12981,3579,-3587,0
T,7320,171897,-174668,-2371,-588,5700,13012,3589,-3595,0
T,7340,172366,-175144,-2337,-1073,4510,9525,3598,-3603,0
T,7360,172825,-175611,-2277,937,-1495,3456,3607,-3610,0
T,7380,173274,-176067,-2236,1587,4162,13308,3615,-3619,0
T,7400,173713,-176539,-2170,2549,-357,9434,3623,-3626,0
T,7420,174137,-176969,-2083,-559,2248,8023,3630,-3634,0
T,7440,174544,-177381,-1989,143,921,8099,3637,-3641,0
T,7460,174937,-177780,-1929,18,1245,7507,3644,-3649,0
T,7480,175315,-178163,-1863,143,2481,11660,3651,-3655,0
T,7500,175698,-178530,-1784,1769,-903,8644,3658,-3662,0
T,7520,176044,-178882,-1701,162,5221,13523,3664,-3669,0
T,7540,176375,-179219,-1636,1392,-699,6396,3669,-3675,0
T,7560,176693,-179541,-1556,1269,1017,10908,3675,-3680,0
T,7580,176995,-179848,-1478,665,1573,7480,3681,-3686,0
T,7600,177282,-180140,-1409,2205,-1593,5668,3687,-3691,0
T,7620,177553,-180416,-1321,551,2526,10671,3692,-3697,0
T,7640,177808,-180674,-1244,260,-218,8257,3696,-3702,0
T,7660,178045,-180916,-1146,1058,974,10540,3700,-3706,0
T,7680,178266,-181140,-1077,1079,742,10165,3705,-3710,0
T,7700,178470,-181347,-987,1160,-637,6800,3709,-3713,0
T,7720,178659,-181540,-913,1215,-1188,7918,3713,-3717,0
T,7740,178836,-181719,-856,1570,-1274,9501,3716,-3720,0
T,7760,178999,-181884,-784,234,976,11447,3720,-3723,0
T,7780,179148,-182036,-724,873,457,9539,3722,-3726,0
T,7800,179286,-182176,-658,527,-1485,9964,3726,-3728,0
T,7820,179410,-182302,-592,-31,370,10115,3729,-3730,0
T,7840,179522,-182416,-534,760,694,11299,3730,-3731,0
T,7860,179621,-182516,-464,842,581,10050,3733,-3733,0
T,7880,179709,-182606,-416,895,-591,10162,3734,-3734,0
T,7900,179786,-182689,-356,992,251,9570,3736,-3735,0
T,7920,179852,-182755,-305,196,-9,9979,3738,-3736,0
T,7940,179907,-182807,-204,492,612,9432,3739,-3737,0
T,7960,179935,-182836,-95,760,265,9948,3739,-3737,0
T,7980,179948,-182849,-45,748,-227,9580,3740,-3737,0
T,8000,179955,-182856,-30,170,-304,9799,3741,-3737,0
# 記録の数: 401 / 間隔: 20 ms
# 止まった時 rotation Z: -1828.58 / モーター 左/右: 3742 -3737 度
# 命令: 1800 度 / 止まった時のジャイロ h1: 1799.57 度
# 定規に合わせ直した時のジャイロ h2: 1796.26 度
# 本当のズレ（＋は回り足りない）: -3.31 度（ジャイロの目盛りで）
# モーターで回ったときのジャイロの 1 周の読み: 359.252 度（360 なら目盛りは合っている）
# 電池: 7855 mV

==================================================
終了コード: 0
終了日時  : 2026-09-19 11:15:53
実行時間  : 30.7 秒
