=== 実行ログ ===
スクリプト: run_gyro_state_trace.py
実行日時 : 2026-09-19 11:17:35
ハブ     : --name Pybricks Hub3
==================================================

Searching for Pybricks Hub3...

  0%|          | 0.00/7.45k [00:00<?, ?B/s]
 14%|█▎        | 1.01k/7.45k [00:00<00:00, 9.78kB/s]
 27%|██▋       | 2.03k/7.45k [00:00<00:00, 7.72kB/s]
 41%|████      | 3.04k/7.45k [00:00<00:00, 8.34kB/s]
 54%|█████▍    | 4.06k/7.45k [00:00<00:00, 8.29kB/s]
 68%|██████▊   | 5.07k/7.45k [00:00<00:00, 8.57kB/s]
 82%|████████▏ | 6.08k/7.45k [00:00<00:00, 7.83kB/s]
 95%|█████████▌| 7.10k/7.45k [00:01<00:00, 5.64kB/s]
100%|██████████| 7.45k/7.45k [00:01<00:00, 5.38kB/s]
=== ロボット初期化開始 ===
★ 走行設定: new （new＝今年の値 / old＝昨年の速度・加速度・PID）
✓ 機体の校正表: Pybricks Hub3 {'heading_correction': 365.8, 'wheel': 62.32, 'axle': 114.48}
✓ ハブ設定完了
✓ モーター設定完了
✓ デフォルト設定適用: 直進={'straight_acceleration': 800, 'straight_speed': 550}, 回転={'turn_acceleration': 313, 'turn_rate': 250}
✓ ロボットパラメータ設定完了
✓ PID制御設定完了（Pybricks の既定値を使用）
✓ センサー初期化完了
✓ モーター角度リセット完了: 全モーター=0°
=== ロボット初期化完了 ===
# imu.settings: (2.0, 2500.0, (0.107595, -1.197198, -0.486059), (366.1989, 351.5872, 362.0139), (10031.61, -9781.568, 9785.638, -9813.727, 9523.833, -10133.98), 365.8)
# 前: tilt (-0.1535122, 0.219032) / 角速度 Matrix([
    [   0.111],
    [   0.049],
    [  -0.015],
])
# ★いま★ ライトが緑になったら（ピーと鳴ったら）、手で定規にぴったり当て直して、手を離してね
# 列: T,ms,heading*100,rotZ*100,wz*10,ax,ay,az,left,right,stationary
T,0,0,0,0,-5,45,9811,0,0,1
T,20,0,0,0,13,42,9819,0,0,0
T,40,0,0,-4,20,54,9830,0,0,0
T,60,0,0,1,153,119,9740,0,0,0
T,80,0,0,-2,-5,6,9845,0,0,0
T,100,0,0,2,44,38,9783,0,0,0
T,120,0,0,0,-28,-12,9838,0,0,0
T,140,0,0,1,91,16,9830,0,0,0
T,160,0,0,-2,-31,-24,9859,0,0,0
T,180,0,0,0,42,78,9826,0,0,0
T,200,0,0,0,51,21,9826,0,0,0
T,220,0,0,-6,-498,708,9630,1,0,0
T,240,10,-10,-100,634,-1085,9131,3,0,0
T,260,49,-50,-275,-1147,-1598,9343,5,-3,0
T,280,120,-122,-426,-2078,-9,9702,8,-6,0
T,300,220,-224,-578,-1268,-1181,8646,10,-9,0
T,320,349,-363,-729,-1836,588,10650,14,-13,0
T,340,520,-528,-891,-1514,1420,11330,18,-18,0
T,360,715,-726,-1051,-498,-936,9362,23,-24,0
T,380,940,-955,-1198,-1317,361,9410,29,-32,0
T,400,1191,-1210,-1303,-90,907,8536,35,-38,0
T,420,1455,-1478,-1352,-922,-141,8538,41,-45,0
T,440,1731,-1759,-1411,-135,-601,6172,47,-52,0
T,460,2020,-2053,-1496,-858,3036,12871,54,-59,0
T,480,2327,-2364,-1581,-178,-2187,7901,61,-65,0
T,500,2649,-2692,-1649,1049,550,11318,68,-73,0
T,520,2982,-3030,-1704,103,-88,8147,75,-80,0
T,540,3329,-3382,-1773,-938,2263,9009,83,-88,0
T,560,3689,-3748,-1827,-528,2371,13026,91,-96,0
T,580,4058,-4123,-1883,1454,-1478,7246,99,-104,0
T,600,4437,-4509,-1933,2089,802,8221,107,-112,0
T,620,4824,-4901,-1958,-142,-2472,3148,116,-120,0
T,640,5216,-5300,-1997,-2,1048,9205,124,-128,0
T,660,5617,-5707,-2044,-1133,2828,9069,132,-136,0
T,680,6029,-6126,-2095,-735,2057,7514,141,-145,0
T,700,6451,-6555,-2127,-2327,4529,11775,151,-154,0
T,720,6879,-6990,-2187,-626,3702,14874,160,-163,0
T,740,7316,-7434,-2233,-3362,-575,12395,171,-173,0
T,760,7761,-7886,-2257,1544,-1495,7361,181,-183,0
T,780,8212,-8371,-2277,-2514,-194,7027,190,-193,0
T,800,8701,-8841,-2330,-2306,1503,8362,200,-203,0
T,820,9170,-9318,-2352,6,696,3058,211,-213,0
T,840,9644,-9799,-2399,-2275,1163,9828,221,-224,0
T,860,10122,-10285,-2403,-533,-24,4839,232,-236,0
T,880,10604,-10775,-2435,-1047,1777,13121,244,-247,0
T,900,11087,-11265,-2418,-770,1789,9088,254,-259,0
T,920,11571,-11757,-2433,1065,3118,9666,265,-270,0
T,940,12056,-12251,-2451,911,2548,7679,275,-282,0
T,960,12543,-12745,-2462,-1173,3496,16761,285,-294,0
T,980,13032,-13242,-2460,-1360,814,4904,296,-304,0
T,1000,13523,-13740,-2483,-505,-287,13000,306,-316,0
T,1020,14018,-14244,-2494,-2367,1185,2250,318,-326,0
T,1040,14521,-14755,-2527,-2270,4323,6874,329,-337,0
T,1060,15029,-15271,-2568,-2509,3951,9312,342,-347,0
T,1080,15542,-15793,-2584,646,500,7151,353,-359,0
T,1100,16057,-16316,-2588,160,-630,6320,363,-368,0
T,1120,16571,-16838,-2589,480,2251,9998,373,-379,0
T,1140,17090,-17365,-2624,-315,2380,6857,384,-390,0
T,1160,17614,-17897,-2639,771,1312,10115,395,-402,0
T,1180,18137,-18429,-2608,-1059,5267,9912,405,-414,0
T,1200,18657,-18957,-2616,-1993,1508,8476,416,-425,0
T,1220,19178,-19518,-2616,-1713,634,6145,427,-437,0
T,1240,19730,-20048,-2625,-1109,4807,10177,438,-449,0
T,1260,20252,-20578,-2609,108,3374,6857,449,-460,0
T,1280,20770,-21105,-2595,492,543,5114,460,-470,0
T,1300,21285,-21628,-2575,925,1583,12954,471,-481,0
T,1320,21797,-22148,-2574,222,-26,14566,481,-490,0
T,1340,22311,-22670,-2577,2601,876,13962,492,-500,0
T,1360,22823,-23191,-2574,1034,1805,5520,503,-509,0
T,1380,23336,-23712,-2584,-1031,452,7055,514,-519,0
T,1400,23851,-24235,-2563,70,3736,7086,525,-529,0
T,1420,24360,-24753,-2557,935,-1214,5556,536,-539,0
T,1440,24865,-25266,-2541,1729,1695,8290,546,-549,0
T,1460,25370,-25778,-2538,129,2208,12130,556,-559,0
T,1480,25875,-26292,-2543,-896,4340,10736,566,-570,0
T,1500,26387,-26812,-2594,-460,3690,11856,576,-580,0
T,1520,26902,-27335,-2591,2371,-3835,3265,586,-591,0
T,1540,27414,-27856,-2598,-2630,8687,17590,597,-603,0
T,1560,27921,-28371,-2533,-384,744,3041,608,-613,0
T,1580,28424,-28881,-2481,1572,-2699,8008,618,-624,0
T,1600,28923,-29389,-2511,-2230,3338,13800,628,-635,0
T,1620,29421,-29895,-2478,3392,107,16847,638,-646,0
T,1640,29919,-30401,-2505,1406,3556,13341,648,-656,0
T,1660,30414,-30904,-2491,750,2739,10757,658,-666,0
T,1680,30908,-31436,-2494,892,2572,14406,668,-676,0
T,1700,31434,-31940,-2504,27,1820,8756,679,-685,0
T,1720,31933,-32448,-2505,-1607,5068,11894,689,-696,0
T,1740,32430,-32953,-2489,305,-230,6874,701,-706,0
T,1760,32924,-33454,-2494,-26,3901,12918,711,-716,0
T,1780,33416,-33954,-2460,366,433,4254,721,-725,0
T,1800,33906,-34452,-2473,622,2847,5983,732,-736,0
T,1820,34400,-34954,-2510,-668,4337,15653,742,-745,0
T,1840,34897,-35459,-2495,-2234,2155,17628,752,-756,0
T,1860,35392,-35962,-2478,885,1544,8768,762,-768,0
T,1880,35888,-36466,-2497,1293,1741,11968,772,-779,0
T,1900,36386,-36972,-2516,-104,6596,18125,782,-790,0
T,1920,36887,-37482,-2506,1871,-3543,9014,793,-801,0
T,1940,37386,-37988,-2506,-360,3899,10420,804,-812,0
T,1960,37883,-38494,-2532,1143,-1911,7368,815,-823,0
T,1980,38380,-38998,-2481,385,2938,7703,825,-832,0
T,2000,38873,-39499,-2473,1357,2241,11347,836,-842,0
T,2020,39361,-39995,-2440,-76,5084,16052,846,-852,0
T,2040,39845,-40487,-2438,-135,2112,9023,856,-860,0
T,2060,40330,-40980,-2453,859,1293,12935,867,-870,0
T,2080,40817,-41475,-2472,-1554,2495,4882,878,-879,0
T,2100,41306,-41971,-2457,-2550,4902,9682,889,-889,0
T,2120,41793,-42495,-2437,-1647,1865,7242,899,-899,0
T,2140,42306,-42987,-2422,-922,2605,8507,909,-910,0
T,2160,42791,-43480,-2449,854,2189,13795,919,-920,0
T,2180,43277,-43974,-2465,-424,363,16575,929,-930,0
T,2200,43766,-44472,-2471,-2194,1331,5914,939,-940,0
T,2220,44259,-44972,-2492,-1438,-239,3717,950,-951,0
T,2240,44751,-45472,-2462,-2659,4416,10960,961,-962,0
T,2260,45240,-45969,-2474,-1081,917,12878,972,-973,0
T,2280,45733,-46470,-2502,2146,1779,10537,982,-984,0
T,2300,46226,-46971,-2473,-2668,2033,14153,992,-996,0
T,2320,46720,-47472,-2475,-1282,4459,9398,1001,-1007,0
T,2340,47213,-47974,-2481,-206,1307,3050,1012,-1017,0
T,2360,47709,-48478,-2487,1629,-613,2723,1022,-1028,0
T,2380,48212,-48988,-2528,-294,3094,18165,1033,-1038,0
T,2400,48717,-49501,-2545,556,1499,16935,1044,-1048,0
T,2420,49222,-50015,-2520,-720,6469,13043,1055,-1058,0
T,2440,49729,-50531,-2555,1895,-3466,4724,1067,-1067,0
T,2460,50241,-51050,-2572,-1988,1645,4104,1077,-1080,0
T,2480,50753,-51571,-2582,-1668,833,9850,1087,-1089,0
T,2500,51266,-52092,-2594,1819,2289,6719,1098,-1099,0
T,2520,51781,-52615,-2595,-858,-1696,1785,1108,-1110,0
T,2540,52299,-53142,-2609,-2114,4320,11244,1118,-1122,0
T,2560,52816,-53697,-2596,677,483,8675,1128,-1133,0
T,2580,53363,-54223,-2601,-1261,1357,4908,1139,-1144,0
T,2600,53883,-54751,-2611,546,2531,11154,1149,-1156,0
T,2620,54401,-55278,-2598,-1493,1868,7194,1159,-1167,0
T,2640,54918,-55803,-2595,831,737,11261,1170,-1178,0
T,2660,55432,-56325,-2554,-834,2680,5391,1181,-1189,0
T,2680,55942,-56843,-2540,1290,1444,5171,1192,-1198,0
T,2700,56445,-57354,-2511,606,-503,4865,1202,-1207,0
T,2720,56947,-57864,-2509,-10,4328,9888,1212,-1216,0
T,2740,57451,-58377,-2536,-246,2665,9061,1222,-1226,0
T,2760,57959,-58892,-2559,-237,1173,14547,1233,-1236,0
T,2780,58469,-59411,-2579,1541,-1523,7430,1244,-1245,0
T,2800,58978,-59928,-2549,-621,2392,7070,1255,-1256,0
T,2820,59484,-60442,-2528,1485,3681,7282,1265,-1266,0
T,2840,59986,-60952,-2518,857,2181,8835,1275,-1276,0
T,2860,60484,-61459,-2503,816,1860,8436,1285,-1286,0
T,2880,60984,-61966,-2506,1610,-76,9002,1294,-1296,0
T,2900,61487,-62478,-2534,-1640,1439,5183,1304,-1307,0
T,2920,61995,-62994,-2570,1217,-2002,7875,1314,-1318,0
T,2940,62503,-63510,-2531,-95,2167,10530,1325,-1329,0
T,2960,63008,-64023,-2525,18,-3061,8462,1335,-1340,0
T,2980,63510,-64533,-2502,2591,1151,5157,1345,-1351,0
T,3000,64008,-65039,-2493,-182,11791,10588,1355,-1361,0
T,3020,64504,-65572,-2497,1809,145,10134,1364,-1372,0
T,3040,65030,-66078,-2508,1409,2560,13888,1374,-1382,0
T,3060,65527,-66583,-2483,262,1590,7879,1385,-1392,0
T,3080,66022,-67086,-2469,-659,3877,7335,1395,-1402,0
T,3100,66519,-67590,-2491,120,588,820,1406,-1411,0
T,3120,67016,-68096,-2504,-2090,7384,15854,1417,-1421,0
T,3140,67513,-68601,-2475,-1036,4363,7636,1427,-1430,0
T,3160,68007,-69102,-2467,-1941,5458,8715,1437,-1440,0
T,3180,68497,-69600,-2446,-1488,4411,5465,1447,-1451,0
T,3200,68987,-70099,-2474,-1990,3377,10432,1458,-1461,0
T,3220,69482,-70601,-2499,98,1609,9565,1468,-1471,0
T,3240,69977,-71104,-2472,-832,1633,9250,1477,-1482,0
T,3260,70471,-71606,-2481,-1201,4184,12756,1488,-1493,0
T,3280,70963,-72107,-2483,440,-764,7758,1498,-1504,0
T,3300,71461,-72612,-2508,-1573,4462,18999,1508,-1515,0
T,3320,71958,-73117,-2499,-1765,337,6520,1519,-1526,0
T,3340,72457,-73624,-2505,-1867,3080,8252,1529,-1536,0
T,3360,72957,-74132,-2524,-881,3221,9687,1540,-1547,0
T,3380,73451,-74634,-2465,-2756,1293,5845,1550,-1556,0
T,3400,73941,-75133,-2467,-1104,4299,9962,1560,-1565,0
T,3420,74432,-75631,-2470,-552,-1665,9998,1570,-1575,0
T,3440,74923,-76159,-2472,87,2086,4789,1581,-1584,0
T,3460,75444,-76659,-2458,2466,-256,5852,1591,-1594,0
T,3480,75935,-77159,-2467,290,1882,10294,1602,-1604,0
T,3500,76426,-77657,-2462,1042,-115,7344,1613,-1614,0
T,3520,76914,-78153,-2440,-3569,6000,13093,1624,-1624,0
T,3540,77400,-78647,-2431,-910,564,10850,1634,-1634,0
T,3560,77885,-79140,-2442,1975,2179,7872,1643,-1645,0
T,3580,78370,-79632,-2437,-2168,5149,9888,1653,-1655,0
T,3600,78858,-80129,-2446,-1336,814,7789,1663,-1666,0
T,3620,79349,-80627,-2446,-1862,3276,3509,1673,-1676,0
T,3640,79839,-81125,-2449,-661,1762,10869,1684,-1687,0
T,3660,80323,-81617,-2414,-628,1549,13783,1695,-1698,0
T,3680,80804,-82106,-2403,257,3940,13773,1705,-1708,0
T,3700,81286,-82595,-2412,343,1633,5720,1715,-1719,0
T,3720,81768,-83085,-2404,1151,1326,7989,1724,-1730,0
T,3740,82250,-83576,-2431,-1066,2236,9040,1734,-1740,0
T,3760,82736,-84069,-2451,997,1484,2945,1745,-1750,0
T,3780,83230,-84571,-2508,2153,375,10917,1756,-1760,0
T,3800,83731,-85080,-2526,-1287,3207,11533,1767,-1770,0
T,3820,84235,-85592,-2537,-1616,490,6960,1779,-1780,0
T,3840,84742,-86108,-2546,-1370,1714,12393,1790,-1789,0
T,3860,85247,-86621,-2538,497,2119,12763,1800,-1802,0
T,3880,85751,-87133,-2536,2283,3966,12966,1810,-1811,0
T,3900,86259,-87649,-2555,-2092,1918,6134,1821,-1821,0
T,3920,86770,-88199,-2579,710,2076,12797,1831,-1832,0
T,3940,87311,-88718,-2559,435,4735,12426,1841,-1844,0
T,3960,87821,-89236,-2567,-455,208,12868,1850,-1855,0
T,3980,88334,-89757,-2582,-1104,2030,7416,1861,-1866,0
T,4000,88847,-90279,-2584,-246,1211,6499,1872,-1878,0
T,4020,89361,-90800,-2566,-998,375,4225,1882,-1889,0
T,4040,89873,-91321,-2572,693,-800,6067,1893,-1900,0
T,4060,90385,-91841,-2559,390,145,5326,1904,-1910,0
T,4080,90895,-92359,-2547,186,3077,10351,1915,-1921,0
T,4100,91401,-92874,-2545,1314,3563,5990,1925,-1930,0
T,4120,91907,-93388,-2541,587,1422,10327,1935,-1940,0
T,4140,92412,-93901,-2543,587,2368,6346,1946,-1949,0
T,4160,92921,-94418,-2558,-732,2220,9804,1956,-1959,0
T,4180,93433,-94939,-2566,-1467,2383,7058,1967,-1969,0
T,4200,93944,-95457,-2570,298,3666,12388,1978,-1979,0
T,4220,94451,-95973,-2560,1049,5010,15588,1988,-1989,0
T,4240,94960,-96490,-2565,-1867,4160,10115,1998,-1999,0
T,4260,95468,-97006,-2542,428,1559,12663,2008,-2010,0
T,4280,95974,-97520,-2541,-844,1520,9979,2017,-2020,0
T,4300,96481,-98035,-2552,-1370,2711,7693,2028,-2031,0
T,4320,96987,-98550,-2531,-1761,917,14175,2037,-2041,0
T,4340,97492,-99063,-2568,96,-1061,10631,2048,-2052,0
T,4360,98001,-99610,-2529,-2218,4902,12448,2058,-2063,0
T,4380,98538,-100125,-2549,456,960,12637,2068,-2074,0
T,4400,99043,-100639,-2547,-1467,3913,4061,2078,-2085,0
T,4420,99546,-101149,-2514,-310,-340,6664,2088,-2095,0
T,4440,100047,-101659,-2507,-353,7250,11490,2098,-2105,0
T,4460,100549,-102168,-2516,-998,711,13143,2108,-2115,0
T,4480,101053,-102681,-2545,1866,862,6508,2118,-2124,0
T,4500,101559,-103196,-2532,-1694,6019,8713,2129,-2134,0
T,4520,102061,-103706,-2531,1274,1786,7371,2140,-2144,0
T,4540,102564,-104216,-2524,760,-1542,4063,2150,-2154,0
T,4560,103067,-104727,-2520,-391,895,7839,2160,-2164,0
T,4580,103564,-105232,-2482,4,2081,11751,2170,-2174,0
T,4600,104058,-105734,-2491,-429,2859,8698,2181,-2183,0
T,4620,104555,-106239,-2480,610,634,10373,2191,-2195,0
T,4640,105050,-106742,-2465,-1960,2493,9639,2200,-2205,0
T,4660,105543,-107243,-2467,-1346,380,9076,2210,-2217,0
T,4680,106035,-107744,-2471,444,2886,7688,2220,-2228,0
T,4700,106528,-108244,-2462,935,1388,8355,2230,-2238,0
T,4720,107019,-108743,-2476,1456,1427,10872,2241,-2249,0
T,4740,107513,-109245,-2481,75,2644,9190,2252,-2260,0
T,4760,108007,-109747,-2464,-320,603,3526,2262,-2270,0
T,4780,108501,-110249,-2473,-2161,3635,14991,2273,-2279,0
T,4800,108990,-110776,-2462,2797,-321,9243,2283,-2288,0
T,4820,109507,-111272,-2445,378,4644,11457,2293,-2297,0
T,4840,109998,-111770,-2477,96,2457,10786,2303,-2306,0
T,4860,110491,-112271,-2460,-1573,4500,11500,2314,-2316,0
T,4880,110986,-112774,-2497,-633,2380,12145,2324,-2325,0
T,4900,111480,-113276,-2499,1866,1233,13616,2335,-2336,0
T,4920,111973,-113777,-2478,1172,2541,13850,2345,-2346,0
T,4940,112465,-114277,-2486,2314,-1178,8775,2355,-2355,0
T,4960,112956,-114776,-2468,980,-1106,4705,2365,-2366,0
T,4980,113449,-115277,-2488,-1794,7226,12675,2375,-2376,0
T,5000,113942,-115778,-2465,-915,-282,7975,2385,-2387,0
T,5020,114434,-116278,-2469,1949,524,6313,2395,-2397,0
T,5040,114925,-116777,-2444,-474,5096,9530,2406,-2408,0
T,5060,115414,-117274,-2444,523,4411,15588,2416,-2419,0
T,5080,115902,-117769,-2427,-1083,2658,11020,2425,-2430,0
T,5100,116387,-118262,-2435,2046,-1348,11376,2436,-2440,0
T,5120,116870,-118753,-2411,-756,4555,8307,2445,-2451,0
T,5140,117356,-119247,-2446,167,1554,10831,2455,-2460,0
T,5160,117844,-119742,-2466,466,4780,12431,2465,-2470,0
T,5180,118333,-120240,-2463,871,-606,5085,2476,-2480,0
T,5200,118828,-120742,-2492,-756,-146,3411,2487,-2490,0
T,5220,119328,-121250,-2533,-2078,4450,15070,2498,-2500,0
T,5240,119833,-121764,-2554,385,-1962,4951,2509,-2510,0
T,5260,120340,-122309,-2541,-671,2943,6100,2519,-2522,0
T,5280,120875,-122822,-2523,456,6586,11875,2530,-2531,0
T,5300,121379,-123335,-2554,527,2186,11803,2540,-2541,0
T,5320,121887,-123851,-2564,236,2433,9577,2550,-2552,0
T,5340,122396,-124368,-2554,-268,2998,12116,2560,-2563,0
T,5360,122901,-124881,-2524,-3682,4143,9678,2570,-2574,0
T,5380,123404,-125393,-2534,32,991,7700,2580,-2585,0
T,5400,123911,-125908,-2550,-600,1633,11646,2591,-2597,0
T,5420,124421,-126425,-2574,594,-381,8333,2601,-2608,0
T,5440,124928,-126940,-2534,-803,3142,8961,2612,-2619,0
T,5460,125433,-127454,-2530,696,2411,14194,2623,-2629,0
T,5480,125935,-127964,-2511,1238,883,7750,2633,-2639,0
T,5500,126437,-128474,-2524,1077,-354,10019,2643,-2647,0
T,5520,126938,-128983,-2496,1428,339,10397,2653,-2657,0
T,5540,127439,-129492,-2524,1724,2498,9936,2664,-2666,0
T,5560,127941,-130002,-2529,504,5798,15794,2675,-2677,0
T,5580,128445,-130515,-2532,-1024,1865,14810,2686,-2686,0
T,5600,128950,-131027,-2534,3089,835,9802,2696,-2696,0
T,5620,129455,-131540,-2531,-69,2385,6439,2706,-2707,0
T,5640,129960,-132054,-2530,-2294,4689,12832,2716,-2717,0
T,5660,130465,-132567,-2524,835,1527,9350,2726,-2727,0
T,5680,130974,-133114,-2566,-2355,5106,5940,2736,-2737,0
T,5700,131515,-133634,-2596,2788,-2010,8355,2746,-2749,0
T,5720,132025,-134152,-2560,-877,2656,8042,2756,-2759,0
T,5740,132533,-134668,-2550,1949,-249,6234,2766,-2770,0
T,5760,133037,-135180,-2531,-1268,-249,3659,2776,-2781,0
T,5780,133540,-135691,-2517,-3621,4558,14101,2786,-2792,0
T,5800,134045,-136204,-2545,-242,90,10060,2796,-2803,0
T,5820,134551,-136719,-2543,-2137,1738,2642,2806,-2813,0
T,5840,135058,-137234,-2529,23,7391,10640,2816,-2823,0
T,5860,135562,-137746,-2508,-3476,1836,3979,2826,-2833,0
T,5880,136066,-138258,-2544,1162,960,10896,2836,-2843,0
T,5900,136574,-138775,-2556,-744,1580,5162,2847,-2853,0
T,5920,137083,-139291,-2565,207,411,13859,2858,-2863,0
T,5940,137588,-139804,-2528,-2019,6443,20778,2869,-2872,0
T,5960,138089,-140313,-2513,-737,3271,9790,2878,-2881,0
T,5980,138587,-140820,-2511,1757,330,8448,2889,-2891,0
T,6000,139083,-141324,-2493,-1746,4184,17208,2899,-2901,0
T,6020,139579,-141828,-2491,-602,1247,6934,2909,-2912,0
T,6040,140072,-142329,-2470,-557,2201,11689,2918,-2923,0
T,6060,140564,-142828,-2469,-1208,2062,9093,2928,-2934,0
T,6080,141057,-143329,-2481,-609,790,8899,2938,-2944,0
T,6100,141550,-143831,-2486,-1334,3063,10153,2948,-2956,0
T,6120,142044,-144361,-2469,-1879,-41,6611,2959,-2966,0
T,6140,142535,-144861,-2474,-308,1053,7624,2969,-2976,0
T,6160,143026,-145360,-2465,-1825,-1085,6898,2980,-2987,0
T,6180,143545,-145858,-2468,-405,2447,13747,2990,-2996,0
T,6200,144033,-146353,-2450,-3028,4150,8333,3001,-3005,0
T,6220,144521,-146849,-2462,-1315,811,12646,3010,-3014,0
T,6240,145011,-147347,-2478,-225,2735,8601,3021,-3024,0
T,6260,145503,-147847,-2485,-751,-1447,6231,3031,-3034,0
T,6280,146001,-148353,-2505,-2128,2914,10029,3041,-3043,0
T,6300,146498,-148859,-2510,1707,-1186,8835,3052,-3053,0
T,6320,146993,-149361,-2472,-1185,1233,4034,3062,-3063,0
T,6340,147485,-149861,-2456,-2076,6007,13771,3072,-3073,0
T,6360,147978,-150362,-2458,459,2150,9286,3082,-3084,0
T,6380,148472,-150864,-2483,-175,2366,5634,3092,-3094,0
T,6400,148968,-151368,-2516,1321,174,11096,3102,-3105,0
T,6420,149465,-151873,-2508,-2666,2315,15092,3113,-3115,0
T,6440,149956,-152372,-2463,951,905,11846,3124,-3126,0
T,6460,150444,-152867,-2442,-55,1638,8273,3133,-3137,0
T,6480,150929,-153361,-2435,909,-958,7753,3143,-3148,0
T,6500,151412,-153851,-2418,-1223,1238,10494,3153,-3158,0
T,6520,151893,-154340,-2400,1210,-2000,7504,3163,-3168,0
T,6540,152372,-154827,-2407,2051,1350,8856,3173,-3178,0
T,6560,152853,-155316,-2433,-730,6294,10566,3183,-3188,0
T,6580,153337,-155808,-2444,-507,991,9711,3194,-3198,0
T,6600,153825,-156333,-2476,636,5403,13434,3204,-3207,0
T,6620,154345,-156831,-2457,371,993,6294,3215,-3218,0
T,6640,154839,-157334,-2515,2710,684,6871,3226,-3227,0
T,6660,155340,-157843,-2538,-119,272,4861,3236,-3238,0
T,6680,155842,-158352,-2517,224,6086,12071,3247,-3247,0
T,6700,156342,-158861,-2524,1686,-1150,8655,3257,-3257,0
T,6720,156847,-159374,-2549,312,2416,9131,3268,-3268,0
T,6740,157355,-159890,-2556,-1194,3142,14428,3277,-3279,0
T,6760,157864,-160407,-2563,-1024,3631,4034,3285,-3291,0
T,6780,158372,-160923,-2543,-623,3013,7196,3298,-3301,0
T,6800,158879,-161439,-2561,-1043,3204,12577,3305,-3313,0
T,6820,159386,-161953,-2579,-405,-24,11251,3319,-3324,0
T,6840,159896,-162472,-2568,-2296,-144,3533,3327,-3335,0
T,6860,160407,-162991,-2579,-201,-848,11230,3340,-3346,0
T,6880,160914,-163506,-2541,-699,2742,5109,3350,-3355,0
T,6900,161417,-164018,-2522,222,519,10244,3361,-3365,0
T,6920,161920,-164528,-2529,-863,4095,12723,3371,-3374,0
T,6940,162423,-165040,-2549,1390,1892,7452,3381,-3384,0
T,6960,162929,-165554,-2550,646,828,9042,3392,-3394,0
T,6980,163438,-166071,-2544,916,526,14757,3403,-3404,0
T,7000,163945,-166586,-2539,-1118,1075,7686,3414,-3414,0
T,7020,164450,-167130,-2540,-396,2387,7789,3424,-3424,0
T,7040,164955,-167642,-2543,1134,-17,7507,3434,-3435,0
T,7060,165490,-168156,-2534,245,2543,7459,3441,-3445,0
T,7080,165997,-168672,-2555,1243,3036,6929,3451,-3455,0
T,7100,166509,-169192,-2567,516,1511,8770,3461,-3466,0
T,7120,167022,-169713,-2579,2684,129,9152,3472,-3476,0
T,7140,167531,-170230,-2549,-775,102,14702,3482,-3487,0
T,7160,168035,-170742,-2533,1352,-450,6071,3492,-3498,0
T,7180,168539,-171254,-2524,572,-884,8302,3502,-3509,0
T,7200,169040,-171763,-2501,-500,3906,7640,3512,-3519,0
T,7220,169544,-172275,-2546,1447,-666,6260,3521,-3530,0
T,7240,170052,-172792,-2555,-912,5350,11502,3531,-3540,0
T,7260,170557,-173305,-2514,-735,4632,7822,3540,-3549,0
T,7280,171057,-173813,-2500,3973,-625,1257,3550,-3558,0
T,7300,171552,-174316,-2458,-209,5681,7292,3560,-3566,0
T,7320,172041,-174812,-2443,1700,761,14468,3569,-3576,0
T,7340,172521,-175301,-2385,1051,-1011,4997,3580,-3584,0
T,7360,172991,-175778,-2320,-585,-270,14793,3591,-3592,0
T,7380,173444,-176238,-2233,-315,3602,11708,3596,-3600,0
T,7400,173878,-176680,-2142,267,157,1646,3605,-3608,0
T,7420,174297,-177105,-2071,3456,833,6186,3613,-3616,0
T,7440,174699,-177537,-1978,1307,1640,10093,3622,-3623,0
T,7460,175084,-177905,-1892,2072,90,12028,3627,-3631,0
T,7480,175450,-178298,-1787,-201,78,4557,3633,-3639,0
T,7500,175799,-178652,-1704,184,775,7249,3639,-3645,0
T,7520,176151,-178989,-1632,878,4749,13816,3645,-3652,0
T,7540,176466,-179309,-1551,4,1154,10547,3650,-3658,0
T,7560,176767,-179615,-1485,724,1865,13222,3656,-3664,0
T,7580,177053,-179905,-1393,1968,-1631,4318,3661,-3670,0
T,7600,177323,-180180,-1322,1579,-1097,8257,3666,-3675,0
T,7620,177579,-180439,-1253,34,852,11944,3671,-3679,0
T,7640,177821,-180686,-1182,847,-345,9315,3676,-3684,0
T,7660,178048,-180916,-1106,516,-1427,9085,3681,-3688,0
T,7680,178262,-181134,-1038,1153,857,11294,3686,-3692,0
T,7700,178461,-181336,-974,383,191,9692,3690,-3695,0
T,7720,178649,-181527,-914,935,-1547,10459,3694,-3698,0
T,7740,178825,-181706,-855,-521,3578,12028,3698,-3701,0
T,7760,178987,-181871,-790,506,-309,11691,3701,-3703,0
T,7780,179137,-182023,-724,82,1182,11562,3705,-3706,0
T,7800,179276,-182164,-670,1504,-1444,8949,3707,-3708,0
T,7820,179402,-182292,-607,316,-1063,10432,3710,-3709,0
T,7840,179517,-182409,-550,755,-50,8608,3713,-3711,0
T,7860,179620,-182514,-488,769,-1092,9680,3715,-3713,0
T,7880,179710,-182605,-415,530,-98,8827,3717,-3714,0
T,7900,179786,-182683,-353,250,428,10537,3719,-3715,0
T,7920,179850,-182751,-298,906,-179,8995,3720,-3716,0
T,7940,179902,-182802,-203,921,45,10088,3721,-3717,0
T,7960,179934,-182833,-105,771,164,9556,3722,-3717,0
T,7980,179950,-182849,-74,300,16,9807,3723,-3717,0
T,8000,179962,-182861,-30,56,-117,9821,3723,-3717,0
# 記録の数: 401 / 間隔: 20 ms
# 止まった時 rotation Z: -1828.62 / モーター 左/右: 3723 -3717 度
# 命令: 1800 度 / 止まった時のジャイロ h1: 1799.62 度
# 定規に合わせ直した時のジャイロ h2: 1797.1 度
# 本当のズレ（＋は回り足りない）: -2.52 度（ジャイロの目盛りで）
# モーターで回ったときのジャイロの 1 周の読み: 359.42 度（360 なら目盛りは合っている）
# 電池: 7848 mV

==================================================
終了コード: 0
終了日時  : 2026-09-19 11:18:06
実行時間  : 30.9 秒
