=== 実行ログ ===
スクリプト: run_gyro_state_trace.py
実行日時 : 2026-09-19 11:14:50
ハブ     : --name Pybricks Hub3
==================================================

Searching for Pybricks Hub3...

  0%|          | 0.00/7.45k [00:00<?, ?B/s]
 14%|█▎        | 1.01k/7.45k [00:00<00:00, 8.61kB/s]
 27%|██▋       | 2.03k/7.45k [00:00<00:00, 8.96kB/s]
 41%|████      | 3.04k/7.45k [00:00<00:00, 9.04kB/s]
 54%|█████▍    | 4.06k/7.45k [00:00<00:00, 9.14kB/s]
 68%|██████▊   | 5.07k/7.45k [00:00<00:00, 8.75kB/s]
 82%|████████▏ | 6.08k/7.45k [00:00<00:00, 8.93kB/s]
 95%|█████████▌| 7.10k/7.45k [00:00<00:00, 7.07kB/s]
100%|██████████| 7.45k/7.45k [00:01<00:00, 6.25kB/s]
=== ロボット初期化開始 ===
★ 走行設定: new （new＝今年の値 / old＝昨年の速度・加速度・PID）
✓ 機体の校正表: Pybricks Hub3 {'heading_correction': 365.8, 'wheel': 62.32, 'axle': 114.48}
✓ ハブ設定完了
✓ モーター設定完了
✓ デフォルト設定適用: 直進={'straight_acceleration': 800, 'straight_speed': 550}, 回転={'turn_acceleration': 313, 'turn_rate': 250}
✓ ロボットパラメータ設定完了
✓ PID制御設定完了（Pybricks の既定値を使用）
✓ センサー初期化完了
✓ モーター角度リセット完了: 全モーター=0°
=== ロボット初期化完了 ===
# imu.settings: (2.0, 2500.0, (0.107595, -1.197198, -0.486059), (366.1989, 351.5872, 362.0139), (10031.61, -9781.568, 9785.638, -9813.727, 9523.833, -10133.98), 365.8)
# 前: tilt (-0.1395846, 0.1962798) / 角速度 Matrix([
    [  -0.027],
    [   0.054],
    [  -0.018],
])
# ★いま★ ライトが緑になったら（ピーと鳴ったら）、手で定規にぴったり当て直して、手を離してね
# 列: T,ms,heading*100,rotZ*100,wz*10,ax,ay,az,left,right,stationary
T,0,0,0,0,6,6,9854,0,0,1
T,20,0,0,0,53,23,9814,0,0,0
T,40,0,0,0,-28,102,9773,0,0,0
T,60,1,0,0,117,-14,9785,0,0,0
T,80,0,0,0,-59,54,9759,0,0,0
T,100,0,0,-2,84,81,9773,0,0,0
T,120,0,0,0,-2,40,9804,0,0,0
T,140,1,0,1,82,71,9792,0,0,0
T,160,1,0,2,-19,-9,9842,0,0,0
T,180,1,0,-2,-493,-479,9811,0,0,0
T,200,6,-6,-61,-476,-108,10072,0,0,0
T,220,26,-26,-135,-1190,-860,9885,0,-2,0
T,240,62,-63,-249,-1180,778,9931,-1,-4,0
T,260,125,-127,-387,-1526,263,10822,3,-7,0
T,280,214,-217,-502,-943,184,10294,6,-10,0
T,300,324,-329,-608,-1092,-122,11099,10,-14,0
T,320,455,-462,-719,94,-867,9016,14,-17,0
T,340,610,-619,-838,-464,1226,10127,19,-21,0
T,360,787,-799,-967,-531,100,8622,24,-26,0
T,380,991,-1006,-1090,-998,876,7743,30,-31,0
T,400,1214,-1233,-1183,-1109,-333,9871,35,-36,0
T,420,1456,-1479,-1280,-637,349,9484,41,-42,0
T,440,1718,-1745,-1381,-1199,42,7607,48,-49,0
T,460,2000,-2031,-1474,-346,3192,10552,54,-55,0
T,480,2317,-2354,-1590,-2263,1415,6688,61,-62,0
T,500,2620,-2682,-1682,-2803,2471,10998,69,-69,0
T,520,2978,-3026,-1744,286,124,8978,76,-77,0
T,540,3331,-3384,-1819,-429,4380,7531,83,-84,0
T,560,3693,-3752,-1885,-1815,2720,7521,92,-92,0
T,580,4068,-4133,-1927,-524,2351,11216,100,-101,0
T,600,4450,-4521,-1960,-55,2114,11283,108,-110,0
T,620,4836,-4913,-1972,-173,-910,2480,116,-119,0
T,640,5225,-5308,-1993,-877,953,4949,124,-128,0
T,660,5622,-5712,-2046,-1213,1664,6296,133,-137,0
T,680,6029,-6125,-2085,-1332,2986,11918,142,-146,0
T,700,6440,-6543,-2102,226,251,9276,151,-157,0
T,720,6857,-6967,-2157,591,2445,17702,160,-165,0
T,740,7285,-7401,-2199,-1462,2399,8995,169,-175,0
T,760,7723,-7847,-2250,1340,864,8660,179,-184,0
T,780,8166,-8297,-2278,1805,476,13047,190,-193,0
T,800,8618,-8756,-2316,-1268,5003,9384,202,-203,0
T,820,9081,-9227,-2405,-1763,9842,21072,213,-212,0
T,840,9553,-9706,-2414,-2092,4732,12369,223,-223,0
T,860,10030,-10191,-2458,-600,5288,12252,234,-233,0
T,880,10513,-10681,-2475,-1569,1247,9276,244,-243,0
T,900,11002,-11178,-2479,850,-2328,4963,254,-255,0
T,920,11492,-11706,-2510,658,2780,9069,266,-266,0
T,940,11987,-12180,-2531,506,2,10153,277,-277,0
T,960,12485,-12715,-2538,-1017,742,9291,290,-288,0
T,980,13014,-13223,-2566,-182,2668,15763,300,-300,0
T,1000,13517,-13734,-2556,4,3693,12524,310,-312,0
T,1020,14018,-14243,-2549,-2045,3017,9659,321,-324,0
T,1040,14522,-14755,-2591,3046,2335,15763,331,-336,0
T,1060,15028,-15270,-2572,324,-793,6790,343,-348,0
T,1080,15531,-15781,-2547,-308,1647,10571,354,-359,0
T,1100,16030,-16288,-2548,470,-1212,5849,365,-370,0
T,1120,16528,-16794,-2548,-1604,4699,11268,375,-381,0
T,1140,17026,-17300,-2534,-1254,227,6778,386,-392,0
T,1160,17525,-17807,-2550,-2163,1750,14440,396,-402,0
T,1180,18025,-18315,-2536,174,1796,8512,407,-413,0
T,1200,18524,-18822,-2539,-230,4713,11333,418,-424,0
T,1220,19028,-19333,-2569,812,2179,6076,430,-433,0
T,1240,19534,-19848,-2582,1646,2014,14079,441,-444,0
T,1260,20040,-20362,-2577,-201,1432,5529,453,-454,0
T,1280,20551,-20882,-2617,-1592,3614,10315,463,-466,0
T,1300,21065,-21404,-2612,-564,3556,10521,474,-478,0
T,1320,21576,-21923,-2587,743,2098,9797,485,-489,0
T,1340,22086,-22442,-2614,1350,107,10454,496,-501,0
T,1360,22599,-22962,-2609,-517,3631,11562,507,-513,0
T,1380,23109,-23480,-2595,331,1470,8830,517,-524,0
T,1400,23618,-23998,-2594,146,428,16233,525,-535,0
T,1420,24155,-24544,-2574,-1877,6177,5763,538,-545,0
T,1440,24659,-25056,-2550,-2798,4773,9530,546,-554,0
T,1460,25164,-25569,-2581,-1713,4613,6893,557,-564,0
T,1480,25678,-26091,-2635,-1405,-515,16238,568,-574,0
T,1500,26195,-26616,-2616,1219,-6094,1113,582,-584,0
T,1520,26716,-27146,-2653,-66,7556,9862,590,-594,0
T,1540,27236,-27674,-2618,184,-8822,75,600,-605,0
T,1560,27754,-28201,-2654,-1649,3801,8663,610,-615,0
T,1580,28273,-28728,-2648,970,1204,11017,622,-626,0
T,1600,28796,-29259,-2700,1018,-244,8703,633,-636,0
T,1620,29318,-29789,-2651,-1668,1204,6200,644,-646,0
T,1640,29836,-30317,-2649,-379,-551,3836,654,-658,0
T,1660,30356,-30844,-2634,101,-1092,7746,664,-669,0
T,1680,30872,-31368,-2627,3153,-2850,10370,674,-680,0
T,1700,31385,-31890,-2612,2755,366,7612,684,-691,0
T,1720,31893,-32407,-2575,-668,2720,11512,695,-702,0
T,1740,32395,-32916,-2535,-325,2888,10222,706,-713,0
T,1760,32888,-33418,-2513,1378,1868,12983,716,-724,0
T,1780,33377,-33914,-2471,4063,-1312,4132,727,-734,0
T,1800,33859,-34404,-2435,2229,93,14619,737,-744,0
T,1820,34335,-34887,-2428,812,-429,8297,747,-754,0
T,1840,34812,-35372,-2414,982,1422,3772,756,-765,0
T,1860,35290,-35886,-2426,1966,4423,10248,766,-774,0
T,1880,35792,-36368,-2425,561,107,13606,777,-784,0
T,1900,36270,-36854,-2456,-1145,3013,11204,788,-793,0
T,1920,36752,-37343,-2458,1314,823,10540,799,-804,0
T,1940,37235,-37835,-2491,-1528,4107,13303,810,-813,0
T,1960,37727,-38334,-2503,58,-2731,1235,821,-824,0
T,1980,38221,-38836,-2519,-929,4625,10946,831,-835,0
T,2000,38710,-39333,-2487,160,-606,8464,842,-847,0
T,2020,39201,-39832,-2506,-462,3197,6747,853,-858,0
T,2040,39693,-40332,-2506,568,426,7662,864,-869,0
T,2060,40182,-40828,-2475,1741,512,12436,873,-880,0
T,2080,40667,-41322,-2483,409,2186,5324,884,-891,0
T,2100,41154,-41816,-2473,-268,1417,7258,894,-901,0
T,2120,41639,-42309,-2453,603,1786,10910,905,-911,0
T,2140,42126,-42804,-2508,1947,1487,10793,916,-920,0
T,2160,42619,-43305,-2520,793,3377,13733,927,-930,0
T,2180,43115,-43810,-2519,1705,-2177,2940,938,-939,0
T,2200,43609,-44311,-2499,1563,1202,11555,948,-949,0
T,2220,44103,-44813,-2519,-576,2344,15581,959,-959,0
T,2240,44599,-45317,-2520,-661,694,5639,969,-970,0
T,2260,45097,-45823,-2552,-1455,4402,9281,980,-981,0
T,2280,45597,-46331,-2561,-3156,6352,9594,991,-991,0
T,2300,46098,-46840,-2543,-739,1398,5386,1002,-1002,0
T,2320,46632,-47383,-2586,65,1204,5804,1013,-1013,0
T,2340,47140,-47899,-2585,-232,2339,7748,1023,-1024,0
T,2360,47646,-48413,-2530,-142,4124,6048,1034,-1036,0
T,2380,48149,-48924,-2559,1124,679,11197,1044,-1047,0
T,2400,48651,-49434,-2557,1613,-2606,32,1054,-1058,0
T,2420,49153,-49944,-2547,-976,6297,13224,1065,-1070,0
T,2440,49652,-50452,-2525,-1827,3992,10886,1077,-1081,0
T,2460,50152,-50959,-2562,1435,-1392,8782,1087,-1092,0
T,2480,50652,-51468,-2540,-1753,2634,5880,1098,-1102,0
T,2500,51153,-51977,-2556,-1192,2876,8304,1108,-1112,0
T,2520,51656,-52488,-2564,39,2402,9525,1118,-1123,0
T,2540,52159,-52999,-2559,-239,701,6449,1128,-1133,0
T,2560,52661,-53509,-2559,1722,54,7342,1138,-1143,0
T,2580,53167,-54023,-2593,1523,2280,9114,1150,-1153,0
T,2600,53678,-54542,-2618,-201,-1547,7774,1161,-1164,0
T,2620,54189,-55062,-2615,731,483,9341,1173,-1174,0
T,2640,54704,-55585,-2629,764,1523,8856,1183,-1186,0
T,2660,55218,-56107,-2609,2257,-867,9393,1193,-1197,0
T,2680,55727,-56624,-2579,1996,-1121,12233,1204,-1209,0
T,2700,56235,-57141,-2600,1108,1118,12441,1215,-1221,0
T,2720,56745,-57659,-2581,260,335,11786,1225,-1232,0
T,2740,57249,-58171,-2544,1075,1844,11624,1235,-1243,0
T,2760,57751,-58711,-2570,-126,2423,8639,1245,-1254,0
T,2780,58285,-59223,-2561,-1135,1420,12085,1256,-1264,0
T,2800,58786,-59732,-2531,1165,4021,9276,1267,-1274,0
T,2820,59283,-60238,-2547,-457,2577,12173,1277,-1283,0
T,2840,59784,-60747,-2556,243,2874,12503,1288,-1292,0
T,2860,60287,-61257,-2579,-175,1578,11101,1299,-1303,0
T,2880,60792,-61771,-2587,-370,1089,8538,1309,-1312,0
T,2900,61301,-62288,-2587,72,3235,10671,1320,-1322,0
T,2920,61807,-62802,-2565,-2279,5846,14707,1330,-1333,0
T,2940,62312,-63316,-2582,-896,8230,19090,1340,-1343,0
T,2960,62821,-63833,-2577,-2877,1750,14299,1351,-1354,0
T,2980,63331,-64351,-2602,-2727,2311,6723,1363,-1364,0
T,3000,63842,-64870,-2600,-1967,2282,8238,1373,-1375,0
T,3020,64356,-65392,-2611,992,972,11481,1384,-1385,0
T,3040,64865,-65909,-2552,-1723,-3042,3060,1393,-1396,0
T,3060,65370,-66422,-2596,-164,564,8849,1403,-1407,0
T,3080,65873,-66934,-2559,906,-242,8302,1413,-1418,0
T,3100,66374,-67443,-2530,-434,-1298,2331,1424,-1429,0
T,3120,66868,-67945,-2488,-123,3631,12484,1434,-1440,0
T,3140,67356,-68440,-2476,-318,270,5785,1445,-1450,0
T,3160,67840,-68932,-2447,2295,727,12324,1455,-1461,0
T,3180,68320,-69420,-2452,87,3729,17000,1465,-1471,0
T,3200,68801,-69938,-2450,1447,804,11063,1475,-1481,0
T,3220,69313,-70429,-2461,790,-1207,6024,1485,-1491,0
T,3240,69795,-70918,-2461,-450,1556,8400,1496,-1501,0
T,3260,70280,-71412,-2493,-1540,6033,13160,1506,-1511,0
T,3280,70772,-71911,-2506,499,1036,8424,1517,-1522,0
T,3300,71265,-72412,-2521,-960,2399,15388,1528,-1531,0
T,3320,71760,-72916,-2539,2105,1087,10136,1539,-1543,0
T,3340,72260,-73424,-2531,271,3139,4851,1550,-1554,0
T,3360,72758,-73930,-2529,-372,3096,11755,1560,-1566,0
T,3380,73255,-74435,-2532,-83,2179,7392,1570,-1577,0
T,3400,73753,-74940,-2545,437,-146,9881,1581,-1589,0
T,3420,74247,-75442,-2521,127,3257,15476,1592,-1600,0
T,3440,74739,-75942,-2492,4,3961,9424,1601,-1611,0
T,3460,75231,-76442,-2504,371,1841,5582,1612,-1620,0
T,3480,75720,-76939,-2469,447,3300,6666,1623,-1630,0
T,3500,76202,-77429,-2453,-761,6392,15354,1634,-1640,0
T,3520,76688,-77923,-2474,674,-682,9766,1645,-1649,0
T,3540,77177,-78419,-2481,428,5343,12828,1656,-1658,0
T,3560,77664,-78915,-2485,2376,191,12672,1666,-1668,0
T,3580,78154,-79413,-2501,-1889,852,15338,1677,-1678,0
T,3600,78644,-79911,-2490,125,-117,5238,1686,-1688,0
T,3620,79136,-80410,-2489,888,5247,16759,1697,-1698,0
T,3640,79627,-80909,-2527,440,1784,12859,1708,-1708,0
T,3660,80120,-81440,-2511,2558,478,6091,1719,-1719,0
T,3680,80643,-81942,-2526,-1235,6826,16245,1731,-1729,0
T,3700,81140,-82446,-2548,-2753,5118,8467,1741,-1740,0
T,3720,81639,-82954,-2550,-1531,3508,13081,1751,-1752,0
T,3740,82138,-83461,-2543,-28,-685,7834,1761,-1763,0
T,3760,82638,-83968,-2566,769,1082,7894,1771,-1774,0
T,3780,83137,-84475,-2537,-1938,3623,16252,1783,-1785,0
T,3800,83632,-84979,-2515,-1938,1556,8999,1794,-1797,0
T,3820,84126,-85481,-2527,-2964,1388,10671,1804,-1808,0
T,3840,84619,-85981,-2499,354,2220,8689,1815,-1819,0
T,3860,85108,-86479,-2483,-256,2727,5603,1825,-1829,0
T,3880,85599,-86978,-2508,-443,941,10339,1835,-1839,0
T,3900,86093,-87480,-2522,-1118,1144,6781,1845,-1850,0
T,3920,86589,-87983,-2527,255,1865,8725,1856,-1860,0
T,3940,87089,-88491,-2561,-69,921,12551,1867,-1870,0
T,3960,87593,-89003,-2584,1056,33,8990,1878,-1881,0
T,3980,88098,-89517,-2598,1392,742,17363,1889,-1891,0
T,4000,88610,-90037,-2609,-687,2368,9286,1900,-1903,0
T,4020,89126,-90561,-2606,-1749,5726,10454,1911,-1914,0
T,4040,89635,-91079,-2588,-1611,4483,15457,1922,-1926,0
T,4060,90143,-91595,-2610,-1083,4481,12598,1933,-1937,0
T,4080,90651,-92111,-2550,-1377,5393,13446,1943,-1949,0
T,4100,91155,-92653,-2548,-1083,4720,8792,1953,-1961,0
T,4120,91689,-93165,-2571,359,2512,12145,1964,-1972,0
T,4140,92195,-93680,-2582,-474,2366,10931,1973,-1982,0
T,4160,92702,-94194,-2585,1305,2385,12073,1984,-1992,0
T,4180,93210,-94711,-2609,651,450,8830,1996,-2002,0
T,4200,93724,-95233,-2630,1011,732,10590,2007,-2011,0
T,4220,94237,-95755,-2596,407,-927,11089,2018,-2021,0
T,4240,94747,-96273,-2605,-199,260,7153,2028,-2031,0
T,4260,95258,-96793,-2605,-1301,2109,5811,2039,-2041,0
T,4280,95770,-97312,-2607,-1301,4167,14762,2048,-2052,0
T,4300,96280,-97831,-2619,-642,3264,15242,2059,-2062,0
T,4320,96794,-98353,-2626,-469,2696,4483,2070,-2073,0
T,4340,97310,-98877,-2618,-1012,4546,7810,2081,-2083,0
T,4360,97826,-99402,-2633,101,3642,5751,2092,-2094,0
T,4380,98344,-99928,-2618,1366,6194,10217,2102,-2105,0
T,4400,98859,-100451,-2601,890,809,11462,2112,-2116,0
T,4420,99369,-100969,-2599,470,-498,3139,2122,-2127,0
T,4440,99878,-101487,-2591,-1974,2435,9838,2132,-2138,0
T,4460,100385,-102001,-2584,-983,6076,16157,2143,-2149,0
T,4480,100884,-102509,-2524,129,-2098,6200,2154,-2160,0
T,4500,101381,-103013,-2536,-1578,9307,14289,2164,-2170,0
T,4520,101873,-103514,-2496,2335,378,4703,2174,-2180,0
T,4540,102360,-104038,-2467,-3057,4759,10857,2184,-2190,0
T,4560,102877,-104534,-2486,-1351,2107,6537,2195,-2201,0
T,4580,103365,-105030,-2497,103,4083,11705,2205,-2211,0
T,4600,103849,-105522,-2443,-1370,4938,8130,2215,-2221,0
T,4620,104331,-106011,-2462,-988,500,5214,2225,-2230,0
T,4640,104817,-106505,-2489,1252,1412,10805,2236,-2241,0
T,4660,105304,-107000,-2476,-1979,4610,12517,2247,-2251,0
T,4680,105794,-107498,-2504,68,3990,7132,2258,-2262,0
T,4700,106287,-107999,-2510,347,790,4548,2268,-2272,0
T,4720,106783,-108503,-2543,1883,315,14089,2279,-2284,0
T,4740,107280,-109008,-2549,497,464,12723,2289,-2295,0
T,4760,107779,-109515,-2533,-263,3460,9035,2300,-2306,0
T,4780,108276,-110020,-2524,-1391,3563,11462,2310,-2318,0
T,4800,108770,-110522,-2515,-291,2569,13150,2320,-2328,0
T,4820,109265,-111025,-2538,591,2533,9267,2331,-2338,0
T,4840,109762,-111530,-2510,698,-714,10666,2341,-2348,0
T,4860,110254,-112030,-2497,3027,1664,9415,2352,-2357,0
T,4880,110750,-112534,-2528,-1618,1276,10877,2363,-2366,0
T,4900,111245,-113037,-2507,-1794,3187,9353,2374,-2376,0
T,4920,111741,-113541,-2510,712,941,4366,2385,-2386,0
T,4940,112240,-114048,-2544,293,2366,7072,2395,-2396,0
T,4960,112739,-114555,-2534,1707,1087,13024,2405,-2406,0
T,4980,113261,-115086,-2492,399,749,15557,2415,-2417,0
T,5000,113725,-115585,-2491,331,3015,7662,2426,-2427,0
T,5020,114247,-116087,-2506,-557,-311,4734,2437,-2438,0
T,5040,114742,-116590,-2518,-1054,2778,8214,2448,-2448,0
T,5060,115239,-117095,-2543,2556,100,13107,2458,-2459,0
T,5080,115736,-117600,-2506,-1355,5971,9479,2468,-2470,0
T,5100,116231,-118103,-2529,2970,3446,15068,2478,-2481,0
T,5120,116726,-118606,-2515,-1078,2004,8641,2489,-2492,0
T,5140,117222,-119110,-2535,3399,-970,6719,2499,-2503,0
T,5160,117715,-119611,-2500,1089,3005,6513,2510,-2514,0
T,5180,118203,-120106,-2469,-2554,2296,6017,2521,-2525,0
T,5200,118691,-120602,-2509,-685,4993,17437,2531,-2535,0
T,5220,119178,-121097,-2495,2563,1223,13071,2542,-2546,0
T,5240,119664,-121592,-2483,1323,3254,7941,2552,-2556,0
T,5260,120153,-122089,-2488,-2486,4150,8684,2562,-2566,0
T,5280,120644,-122587,-2497,4,1305,6291,2572,-2576,0
T,5300,121138,-123089,-2531,143,-953,8861,2583,-2587,0
T,5320,121637,-123596,-2563,146,1690,10996,2594,-2597,0
T,5340,122138,-124105,-2547,1165,215,10260,2605,-2607,0
T,5360,122641,-124617,-2601,418,835,8964,2617,-2617,0
T,5380,123151,-125134,-2595,-393,2953,11975,2627,-2629,0
T,5400,123661,-125653,-2568,1013,390,9341,2637,-2640,0
T,5420,124169,-126169,-2584,18,3015,9465,2648,-2652,0
T,5440,124678,-126717,-2582,-2012,2692,6136,2659,-2663,0
T,5460,125216,-127232,-2579,-851,2505,11342,2669,-2676,0
T,5480,125720,-127745,-2561,-841,1657,8710,2679,-2687,0
T,5500,126225,-128259,-2567,1030,1187,10311,2689,-2697,0
T,5520,126730,-128771,-2555,37,4804,13062,2700,-2707,0
T,5540,127229,-129278,-2528,-100,4902,10998,2711,-2717,0
T,5560,127734,-129792,-2607,748,318,14573,2722,-2726,0
T,5580,128245,-130311,-2618,1212,-352,13594,2733,-2736,0
T,5600,128757,-130831,-2601,-204,3779,5465,2743,-2746,0
T,5620,129272,-131355,-2647,1454,4090,17038,2754,-2756,0
T,5640,129785,-131876,-2589,1679,-1075,5247,2764,-2767,0
T,5660,130295,-132394,-2596,2686,-965,14019,2775,-2777,0
T,5680,130806,-132913,-2617,2376,3688,18540,2785,-2787,0
T,5700,131320,-133435,-2633,2724,-239,14583,2796,-2798,0
T,5720,131834,-133957,-2621,46,1441,14901,2807,-2809,0
T,5740,132350,-134482,-2638,-438,1915,6394,2817,-2819,0
T,5760,132865,-135005,-2604,7489,-6738,841,2827,-2831,0
T,5780,133378,-135526,-2617,-10,3310,13797,2837,-2841,0
T,5800,133887,-136043,-2609,1342,6160,5343,2847,-2853,0
T,5820,134392,-136556,-2538,390,2203,11211,2858,-2864,0
T,5840,134893,-137065,-2543,1001,1999,11605,2868,-2875,0
T,5860,135389,-137570,-2512,134,4239,10669,2879,-2885,0
T,5880,135879,-138068,-2475,454,4110,11032,2889,-2896,0
T,5900,136392,-138589,-2437,23,3262,8147,2900,-2906,0
T,5920,136873,-139077,-2437,-730,1436,7230,2909,-2915,0
T,5940,137355,-139568,-2471,549,5046,11361,2919,-2926,0
T,5960,137835,-140056,-2458,-486,4368,13635,2929,-2936,0
T,5980,138312,-140540,-2435,-986,4249,12620,2940,-2947,0
T,6000,138792,-141028,-2466,207,3276,12090,2951,-2955,0
T,6020,139275,-141518,-2469,-1457,2598,15830,2961,-2966,0
T,6040,139760,-142011,-2498,335,1202,13446,2973,-2977,0
T,6060,140251,-142510,-2507,-1000,2830,7020,2984,-2988,0
T,6080,140742,-143009,-2483,-597,3542,12971,2994,-2999,0
T,6100,141229,-143503,-2479,-2152,5293,6781,3004,-3009,0
T,6120,141716,-143999,-2500,-2227,3650,9030,3015,-3021,0
T,6140,142206,-144497,-2502,461,339,4264,3026,-3033,0
T,6160,142696,-144994,-2482,8,-606,12095,3036,-3044,0
T,6180,143187,-145494,-2520,824,2301,11065,3046,-3055,0
T,6200,143682,-145996,-2522,-590,3789,11309,3056,-3064,0
T,6220,144176,-146498,-2500,-1045,1259,8491,3067,-3074,0
T,6240,144668,-146998,-2524,-1301,311,3807,3078,-3083,0
T,6260,145168,-147506,-2552,-3592,3813,15452,3089,-3093,0
T,6280,145668,-148015,-2557,-3680,2857,10098,3100,-3103,0
T,6300,146166,-148521,-2541,670,1515,13238,3111,-3113,0
T,6320,146665,-149027,-2524,532,-769,7583,3121,-3123,0
T,6340,147161,-149562,-2541,380,3063,11407,3131,-3133,0
T,6360,147687,-150066,-2524,764,4296,16529,3142,-3144,0
T,6380,148183,-150570,-2526,1463,3051,15333,3153,-3154,0
T,6400,148678,-151073,-2533,-3092,1532,10874,3164,-3164,0
T,6420,149174,-151577,-2541,-111,682,9685,3175,-3176,0
T,6440,149671,-152082,-2525,1236,279,9071,3185,-3187,0
T,6460,150166,-152585,-2508,672,1305,9740,3195,-3197,0
T,6480,150655,-153082,-2486,-483,363,3542,3206,-3209,0
T,6500,151146,-153580,-2507,-1178,3149,10444,3216,-3220,0
T,6520,151635,-154078,-2477,3992,-920,9138,3227,-3231,0
T,6540,152120,-154570,-2463,835,-1768,5682,3238,-3242,0
T,6560,152604,-155062,-2453,-104,6311,8049,3249,-3252,0
T,6580,153089,-155555,-2485,819,1609,13735,3259,-3264,0
T,6600,153575,-156048,-2474,651,-917,8498,3269,-3273,0
T,6620,154063,-156545,-2511,-386,2174,10079,3279,-3285,0
T,6640,154554,-157043,-2497,8,1391,9690,3290,-3295,0
T,6660,155043,-157540,-2497,58,2155,9171,3300,-3306,0
T,6680,155536,-158041,-2526,-543,5432,8247,3312,-3315,0
T,6700,156034,-158547,-2543,-981,960,9582,3322,-3325,0
T,6720,156535,-159056,-2564,-796,962,2310,3335,-3336,0
T,6740,157042,-159572,-2580,-701,873,3280,3346,-3348,0
T,6760,157550,-160088,-2576,487,-740,5240,3356,-3359,0
T,6780,158057,-160633,-2575,-803,1664,7375,3366,-3371,0
T,6800,158595,-161150,-2589,660,1202,10802,3378,-3382,0
T,6820,159104,-161666,-2579,1890,2620,13931,3388,-3394,0
T,6840,159608,-162179,-2567,1250,2229,8620,3398,-3405,0
T,6860,160115,-162694,-2585,101,3312,5794,3409,-3416,0
T,6880,160621,-163209,-2563,113,895,3389,3420,-3426,0
T,6900,161124,-163719,-2557,2489,-721,4818,3431,-3436,0
T,6920,161629,-164232,-2592,-671,-146,10351,3442,-3445,0
T,6940,162136,-164748,-2597,-820,581,6809,3453,-3455,0
T,6960,162647,-165267,-2604,32,1652,9050,3463,-3466,0
T,6980,163161,-165789,-2612,-1889,2929,9405,3474,-3476,0
T,7000,163676,-166312,-2610,94,1309,11758,3484,-3487,0
T,7020,164189,-166833,-2591,-1588,5350,8854,3495,-3497,0
T,7040,164703,-167355,-2616,914,-750,7208,3506,-3508,0
T,7060,165217,-167878,-2614,-2452,1961,12176,3517,-3518,0
T,7080,165730,-168400,-2623,2864,-1126,8684,3528,-3529,0
T,7100,166245,-168923,-2622,-941,1190,6334,3538,-3540,0
T,7120,166759,-169446,-2597,-1220,7597,14640,3548,-3552,0
T,7140,167273,-169967,-2625,-784,-968,10676,3558,-3562,0
T,7160,167790,-170492,-2642,-727,265,4724,3569,-3574,0
T,7180,168304,-171015,-2613,369,5640,-7808,3579,-3585,0
T,7200,168816,-171535,-2526,2859,-24,17587,3590,-3596,0
T,7220,169317,-172044,-2529,-2464,-127,11918,3600,-3607,0
T,7240,169841,-172577,-2501,-654,7695,16544,3611,-3617,0
T,7260,170330,-173073,-2485,876,2792,11323,3621,-3627,0
T,7280,170815,-173566,-2455,3511,-76,7301,3630,-3637,0
T,7300,171292,-174051,-2418,2515,-891,7232,3639,-3646,0
T,7320,171760,-174527,-2360,-1031,3171,11662,3648,-3655,0
T,7340,172219,-174993,-2326,622,1901,12873,3657,-3665,0
T,7360,172671,-175453,-2295,2897,11,8142,3666,-3673,0
T,7380,173116,-175904,-2252,2359,-726,9073,3675,-3682,0
T,7400,173550,-176345,-2187,2262,787,8149,3683,-3689,0
T,7420,173969,-176772,-2118,662,893,11753,3692,-3698,0
T,7440,174378,-177187,-2049,2103,780,8273,3700,-3706,0
T,7460,174771,-177586,-1954,3094,-2247,6267,3708,-3714,0
T,7480,175148,-177969,-1880,2286,876,13883,3715,-3722,0
T,7500,175506,-178333,-1781,-59,349,8369,3722,-3729,0
T,7520,175849,-178682,-1711,46,-831,7741,3729,-3736,0
T,7540,176176,-179014,-1624,4,3185,13143,3735,-3743,0
T,7560,176486,-179329,-1549,352,2217,11060,3741,-3749,0
T,7580,176780,-179627,-1466,1899,272,10143,3747,-3755,0
T,7600,177058,-179910,-1377,-59,-1468,7089,3752,-3760,0
T,7620,177323,-180179,-1313,46,3765,11347,3757,-3765,0
T,7640,177574,-180434,-1238,696,-1648,7583,3761,-3770,0
T,7660,177813,-180677,-1181,937,2632,12794,3766,-3774,0
T,7680,178039,-180920,-1121,975,742,9248,3771,-3778,0
T,7700,178264,-181136,-1047,357,-373,12075,3775,-3781,0
T,7720,178463,-181337,-974,1015,1175,11474,3779,-3783,0
T,7740,178645,-181522,-891,892,742,10731,3783,-3787,0
T,7760,178811,-181692,-813,1001,88,10291,3787,-3789,0
T,7780,178967,-181850,-773,722,1005,11369,3790,-3791,0
T,7800,179113,-181998,-717,129,1075,11005,3794,-3793,0
T,7820,179246,-182133,-644,397,-1078,10358,3797,-3795,0
T,7840,179367,-182256,-600,632,-117,9928,3799,-3797,0
T,7860,179477,-182368,-528,480,6,10256,3802,-3800,0
T,7880,179573,-182466,-450,1335,-769,9398,3804,-3801,0
T,7900,179656,-182550,-396,525,699,10210,3805,-3802,0
T,7920,179727,-182622,-319,452,49,9709,3806,-3803,0
T,7940,179783,-182679,-254,587,-261,9706,3808,-3804,0
T,7960,179827,-182724,-214,-14,-139,9506,3809,-3804,0
T,7980,179861,-182759,-126,1278,375,9651,3809,-3805,0
T,8000,179878,-182775,-48,670,71,9766,3810,-3805,0
# 記録の数: 401 / 間隔: 20 ms
# 止まった時 rotation Z: -1827.76 / モーター 左/右: 3810 -3806 度
# 命令: 1800 度 / 止まった時のジャイロ h1: 1798.78 度
# 定規に合わせ直した時のジャイロ h2: 1772.67 度
# 本当のズレ（＋は回り足りない）: -26.11 度（ジャイロの目盛りで）
# モーターで回ったときのジャイロの 1 周の読み: 354.534 度（360 なら目盛りは合っている）
# 電池: 7858 mV

==================================================
終了コード: 0
終了日時  : 2026-09-19 11:15:20
実行時間  : 29.2 秒
