=== 実行ログ ===
スクリプト: run_gyro_state_trace.py
実行日時 : 2026-09-19 11:19:55
ハブ     : --name Pybricks Hub3
==================================================

Searching for Pybricks Hub3...

  0%|          | 0.00/7.45k [00:00<?, ?B/s]
 14%|█▎        | 1.01k/7.45k [00:00<00:00, 7.73kB/s]
 27%|██▋       | 2.03k/7.45k [00:00<00:00, 8.57kB/s]
 41%|████      | 3.04k/7.45k [00:00<00:00, 8.40kB/s]
 54%|█████▍    | 4.06k/7.45k [00:00<00:00, 8.68kB/s]
 68%|██████▊   | 5.07k/7.45k [00:00<00:00, 8.87kB/s]
 82%|████████▏ | 6.08k/7.45k [00:00<00:00, 8.65kB/s]
 95%|█████████▌| 7.10k/7.45k [00:00<00:00, 8.38kB/s]
100%|██████████| 7.45k/7.45k [00:01<00:00, 6.52kB/s]
=== ロボット初期化開始 ===
★ 走行設定: new （new＝今年の値 / old＝昨年の速度・加速度・PID）
✓ 機体の校正表: Pybricks Hub3 {'heading_correction': 365.8, 'wheel': 62.32, 'axle': 114.48}
✓ ハブ設定完了
✓ モーター設定完了
✓ デフォルト設定適用: 直進={'straight_acceleration': 800, 'straight_speed': 550}, 回転={'turn_acceleration': 313, 'turn_rate': 250}
✓ ロボットパラメータ設定完了
✓ PID制御設定完了（Pybricks の既定値を使用）
✓ センサー初期化完了
✓ モーター角度リセット完了: 全モーター=0°
=== ロボット初期化完了 ===
# imu.settings: (2.0, 2500.0, (0.107595, -1.197198, -0.486059), (366.1989, 351.5872, 362.0139), (10031.61, -9781.568, 9785.638, -9813.727, 9523.833, -10133.98), 365.8)
# 前: tilt (-0.2506747, 0.2216531) / 角速度 Matrix([
    [  -0.025],
    [   0.115],
    [   0.057],
])
# ★いま★ ライトが緑になったら（ピーと鳴ったら）、手で定規にぴったり当て直して、手を離してね
# 列: T,ms,heading*100,rotZ*100,wz*10,ax,ay,az,left,right,stationary
T,1,0,0,1,82,16,9866,0,0,1
T,20,0,0,0,44,11,9778,0,0,0
T,40,0,0,-2,-7,157,9883,0,0,0
T,60,0,0,2,103,6,9780,0,0,0
T,80,0,0,0,-28,-36,9816,0,0,0
T,100,0,0,-5,-171,-711,9809,0,-1,0
T,120,5,-5,-41,-159,-62,9916,0,-1,0
T,140,18,-18,-87,37,-148,9663,-1,-1,0
T,160,33,-34,-65,165,308,9692,-1,-2,0
T,180,46,-47,-71,-391,-362,9764,-2,-4,0
T,200,64,-65,-102,-256,-115,9508,-2,-5,0
T,220,91,-93,-179,-1040,605,10545,-2,-7,0
T,240,143,-145,-320,-1152,363,10439,0,-9,0
T,260,218,-222,-433,-1130,155,10375,3,-11,0
T,280,315,-326,-536,-107,-484,8636,5,-13,0
T,300,433,-448,-657,-505,45,9253,8,-15,0
T,320,577,-586,-796,-1315,-60,9747,12,-18,0
T,340,747,-770,-918,-1187,-570,7719,17,-21,0
T,360,953,-969,-1048,-2000,337,9439,22,-26,0
T,380,1172,-1191,-1132,-1481,943,10855,28,-30,0
T,400,1408,-1431,-1229,-929,1240,7827,34,-34,0
T,420,1660,-1687,-1305,-1344,2294,14007,40,-39,0
T,440,1929,-1960,-1402,-282,-98,9018,46,-45,0
T,460,2217,-2253,-1473,-1666,3355,12080,52,-51,0
T,480,2517,-2558,-1539,-948,3185,10485,59,-57,0
T,500,2831,-2877,-1615,-1971,816,7020,65,-64,0
T,520,3157,-3208,-1649,-1573,2268,10502,72,-70,0
T,540,3492,-3549,-1717,-1637,2754,11617,79,-78,0
T,560,3839,-3901,-1766,-716,246,9830,86,-86,0
T,580,4196,-4263,-1800,-595,-1221,8433,93,-94,0
T,600,4559,-4632,-1830,2065,778,10855,100,-103,0
T,620,4929,-5009,-1893,-213,3525,13024,108,-111,0
T,640,5311,-5397,-1953,-787,1194,10640,115,-120,0
T,660,5704,-5796,-2000,-602,2957,14848,124,-129,0
T,680,6107,-6206,-2038,-1998,5106,11137,133,-138,0
T,700,6517,-6622,-2083,800,2474,7153,142,-147,0
T,720,6939,-7051,-2155,-711,3722,10934,152,-156,0
T,740,7374,-7493,-2226,-2152,2450,5792,162,-165,0
T,760,7820,-7946,-2245,-626,2117,7363,172,-175,0
T,780,8300,-8434,-2290,698,830,7626,181,-184,0
T,800,8762,-8903,-2343,-2576,4031,8292,191,-194,0
T,820,9233,-9382,-2400,-652,1599,16422,202,-204,0
T,840,9712,-9868,-2426,582,2057,16107,212,-215,0
T,860,10199,-10363,-2458,-1545,4589,11789,222,-225,0
T,880,10688,-10861,-2460,326,-282,7676,233,-236,0
T,900,11182,-11362,-2496,2357,4332,16563,243,-248,0
T,920,11681,-11869,-2504,430,1472,6461,253,-260,0
T,940,12183,-12380,-2526,-209,3657,10430,265,-272,0
T,960,12688,-12892,-2536,1435,1760,9382,276,-283,0
T,980,13193,-13405,-2563,-2415,4088,9828,286,-295,0
T,1000,13696,-13916,-2528,-960,1571,2432,298,-307,0
T,1020,14200,-14428,-2537,-237,988,4517,308,-318,0
T,1040,14702,-14939,-2516,-3744,3743,5025,319,-328,0
T,1060,15202,-15447,-2506,51,1254,9064,330,-339,0
T,1080,15701,-15954,-2522,-2014,3808,15369,341,-348,0
T,1100,16203,-16465,-2539,968,385,9221,352,-357,0
T,1120,16708,-16977,-2540,1245,2356,12983,363,-368,0
T,1140,17216,-17493,-2552,-1557,3386,12173,373,-378,0
T,1160,17724,-18010,-2552,1139,-1837,9928,383,-388,0
T,1180,18236,-18530,-2560,-827,6445,17052,394,-399,0
T,1200,18749,-19081,-2575,1463,950,10619,404,-409,0
T,1220,19260,-19571,-2574,736,850,7629,415,-420,0
T,1240,19773,-20122,-2565,-154,2474,7337,426,-430,0
T,1260,20316,-20643,-2577,852,2866,15371,436,-441,0
T,1280,20827,-21163,-2572,316,3511,9940,446,-452,0
T,1300,21338,-21682,-2566,826,224,6766,457,-463,0
T,1320,21850,-22201,-2573,-1036,2869,14490,466,-474,0
T,1340,22362,-22722,-2567,-1206,1597,6356,477,-485,0
T,1360,22874,-23243,-2578,-891,5621,9647,487,-496,0
T,1380,23387,-23764,-2584,-962,-1006,5293,498,-507,0
T,1400,23899,-24284,-2562,-1903,4399,12092,508,-517,0
T,1420,24408,-24802,-2539,-3464,2368,4779,520,-527,0
T,1440,24918,-25319,-2572,-1351,3472,9145,531,-537,0
T,1460,25429,-25839,-2574,2267,-1011,12121,541,-547,0
T,1480,25937,-26355,-2549,350,3827,12300,551,-557,0
T,1500,26446,-26872,-2541,876,-108,6829,561,-567,0
T,1520,26955,-27390,-2566,1174,1686,11493,572,-577,0
T,1540,27458,-27901,-2519,-640,4289,9238,581,-587,0
T,1560,27958,-28408,-2531,2113,-1152,11170,591,-597,0
T,1580,28464,-28922,-2548,1783,2996,11569,601,-608,0
T,1600,28972,-29439,-2570,-341,4227,13501,612,-619,0
T,1620,29479,-29954,-2537,1511,-2184,10256,622,-630,0
T,1640,29985,-30468,-2543,1250,3671,11371,633,-640,0
T,1660,30491,-30982,-2530,1053,3798,11306,643,-652,0
T,1680,30993,-31523,-2511,1079,229,6666,654,-662,0
T,1700,31525,-32033,-2520,1428,3523,12367,664,-673,0
T,1720,32024,-32540,-2499,1241,751,10442,674,-683,0
T,1740,32517,-33041,-2471,2160,1199,10110,685,-692,0
T,1760,33006,-33538,-2453,196,2847,11655,695,-701,0
T,1780,33497,-34036,-2458,245,1008,10800,706,-710,0
T,1800,33988,-34535,-2466,-341,4222,13864,717,-719,0
T,1820,34478,-35034,-2462,-1602,2656,12431,726,-729,0
T,1840,34968,-35531,-2458,-21,708,12458,737,-739,0
T,1860,35458,-36029,-2459,-1782,2694,7975,746,-749,0
T,1880,35949,-36528,-2474,-602,-2077,9014,756,-759,0
T,1900,36440,-37027,-2466,-1225,2747,13047,766,-768,0
T,1920,36931,-37526,-2467,1027,1920,6883,776,-779,0
T,1940,37423,-38026,-2481,750,291,10733,787,-790,0
T,1960,37917,-38528,-2483,461,3829,8885,797,-800,0
T,1980,38411,-39030,-2481,-230,3360,13021,807,-811,0
T,2000,38906,-39533,-2492,890,2538,9632,818,-821,0
T,2020,39398,-40033,-2452,-2367,6766,13771,826,-833,0
T,2040,39889,-40531,-2454,-1611,4699,10174,837,-843,0
T,2060,40379,-41029,-2463,1364,2030,18335,847,-854,0
T,2080,40867,-41555,-2464,-424,1623,8792,858,-864,0
T,2100,41355,-42051,-2458,878,1297,15467,868,-874,0
T,2120,41842,-42545,-2449,-2853,838,4259,880,-885,0
T,2140,42360,-43042,-2445,-1436,4931,7815,890,-894,0
T,2160,42849,-43540,-2455,-640,1168,11469,900,-904,0
T,2180,43339,-44037,-2457,-180,-1027,9121,911,-914,0
T,2200,43828,-44534,-2467,-720,-247,5959,921,-923,0
T,2220,44319,-45033,-2482,-571,-496,3475,931,-935,0
T,2240,44810,-45532,-2453,-3166,5774,9221,941,-943,0
T,2260,45302,-46032,-2494,16,-4024,3788,951,-954,0
T,2280,45799,-46537,-2519,-2019,4169,9508,961,-964,0
T,2300,46299,-47045,-2512,-1284,-342,6962,972,-975,0
T,2320,46802,-47556,-2533,-488,4548,8598,982,-987,0
T,2340,47308,-48070,-2540,-2019,2474,9916,993,-997,0
T,2360,47813,-48583,-2523,-2881,4167,10891,1003,-1008,0
T,2380,48319,-49098,-2550,634,-1456,11039,1014,-1019,0
T,2400,48825,-49612,-2539,1034,2342,6864,1025,-1033,0
T,2420,49331,-50126,-2538,-204,2409,13184,1035,-1041,0
T,2440,49835,-50638,-2543,774,1757,14521,1045,-1050,0
T,2460,50339,-51150,-2522,-758,1927,8749,1056,-1060,0
T,2480,50843,-51662,-2549,-2372,4577,13745,1068,-1072,0
T,2500,51346,-52173,-2520,925,493,8660,1078,-1079,0
T,2520,51850,-52686,-2536,892,1779,12699,1088,-1089,0
T,2540,52356,-53200,-2547,470,1051,12161,1098,-1099,0
T,2560,52862,-53744,-2525,707,1721,9257,1108,-1109,0
T,2580,53367,-54257,-2528,-858,2744,8773,1118,-1123,0
T,2600,53902,-54770,-2539,-1379,1817,7328,1128,-1130,0
T,2620,54407,-55284,-2554,-74,3300,13609,1139,-1141,0
T,2640,54913,-55798,-2563,572,-405,5584,1150,-1151,0
T,2660,55422,-56315,-2561,-597,4747,12684,1160,-1162,0
T,2680,55930,-56831,-2537,-1308,641,10397,1170,-1176,0
T,2700,56436,-57346,-2548,-732,4878,13074,1179,-1184,0
T,2720,56943,-57860,-2557,-448,-1272,8799,1189,-1195,0
T,2740,57451,-58377,-2552,-1218,3092,13847,1199,-1206,0
T,2760,57961,-58895,-2548,-680,2203,6900,1210,-1216,0
T,2780,58472,-59414,-2572,-1114,-115,7017,1220,-1229,0
T,2800,58983,-59933,-2570,63,1113,12706,1230,-1237,0
T,2820,59493,-60451,-2551,963,2282,16560,1242,-1247,0
T,2840,60000,-60966,-2525,-1282,5398,12825,1252,-1256,0
T,2860,60504,-61478,-2517,1553,2105,16420,1262,-1266,0
T,2880,61003,-61986,-2500,179,4265,6998,1272,-1279,0
T,2900,61504,-62495,-2549,1323,4251,8722,1283,-1286,0
T,2920,62007,-63006,-2509,-782,1616,12749,1292,-1295,0
T,2940,62508,-63516,-2529,369,2112,14213,1302,-1306,0
T,2960,63007,-64022,-2494,-299,3791,9071,1311,-1318,0
T,2980,63507,-64530,-2522,-730,2967,6762,1321,-1327,0
T,3000,64008,-65069,-2517,2233,136,10141,1331,-1337,0
T,3020,64510,-65579,-2536,-147,1491,3440,1342,-1349,0
T,3040,65046,-66093,-2545,622,-36,10609,1353,-1362,0
T,3060,65549,-66605,-2520,902,2421,4775,1363,-1370,0
T,3080,66050,-67114,-2519,1629,-1389,12658,1373,-1381,0
T,3100,66551,-67623,-2512,2186,-1097,9014,1384,-1394,0
T,3120,67050,-68131,-2513,2572,909,7036,1394,-1404,0
T,3140,67548,-68636,-2506,2312,1652,15097,1404,-1411,0
T,3160,68039,-69135,-2442,1172,782,6284,1415,-1421,0
T,3180,68527,-69631,-2449,222,6931,13671,1425,-1432,0
T,3200,69015,-70127,-2435,-1441,1178,4233,1436,-1441,0
T,3220,69505,-70625,-2464,1506,569,6616,1446,-1449,0
T,3240,69996,-71124,-2458,-1043,6184,9639,1456,-1458,0
T,3260,70486,-71621,-2455,-353,1642,8261,1466,-1471,0
T,3280,70976,-72119,-2450,411,1290,4154,1476,-1478,0
T,3300,71468,-72619,-2462,-981,3714,7569,1486,-1491,0
T,3320,71959,-73118,-2474,324,-893,6814,1496,-1501,0
T,3340,72451,-73618,-2486,-552,4074,8347,1506,-1510,0
T,3360,72944,-74119,-2488,328,-963,11865,1516,-1519,0
T,3380,73439,-74622,-2490,-2960,5748,12214,1526,-1530,0
T,3400,73933,-75124,-2478,-351,1549,8350,1536,-1543,0
T,3420,74428,-75627,-2488,717,3065,13816,1545,-1554,0
T,3440,74924,-76131,-2497,1158,2708,10050,1556,-1564,0
T,3460,75418,-76633,-2483,-1671,6663,14177,1566,-1572,0
T,3480,75941,-77164,-2463,-1749,6977,14227,1576,-1586,0
T,3500,76436,-77667,-2477,-2590,6011,14891,1587,-1595,0
T,3520,76928,-78167,-2467,-3161,3144,4046,1599,-1605,0
T,3540,77422,-78669,-2494,-929,1709,8104,1609,-1613,0
T,3560,77914,-79169,-2476,-1623,366,9410,1619,-1625,0
T,3580,78404,-79667,-2456,-1507,3961,10712,1629,-1635,0
T,3600,78893,-80164,-2466,-213,-385,7380,1640,-1642,0
T,3620,79384,-80663,-2471,-519,2914,14122,1650,-1653,0
T,3640,79876,-81163,-2458,-1552,1705,6917,1659,-1664,0
T,3660,80367,-81662,-2482,-841,-414,3996,1669,-1674,0
T,3680,80862,-82165,-2490,-3327,5384,8622,1680,-1686,0
T,3700,81361,-82672,-2510,-88,-1772,2694,1690,-1696,0
T,3720,81863,-83182,-2553,-1088,1760,13707,1700,-1707,0
T,3740,82364,-83691,-2512,-306,1163,7383,1711,-1715,0
T,3760,82867,-84202,-2533,2421,574,5799,1721,-1729,0
T,3780,83372,-84716,-2540,-1592,799,11605,1732,-1740,0
T,3800,83878,-85230,-2525,-924,344,13172,1742,-1751,0
T,3820,84382,-85742,-2529,-754,1468,12295,1752,-1761,0
T,3840,84883,-86251,-2508,1442,1087,12286,1763,-1771,0
T,3860,85383,-86758,-2497,-19,1393,13174,1774,-1780,0
T,3880,85883,-87296,-2492,-550,2016,13644,1785,-1790,0
T,3900,86382,-87804,-2520,399,4646,13855,1796,-1799,0
T,3920,86881,-88310,-2491,819,2006,11851,1805,-1809,0
T,3940,87407,-88815,-2501,-289,976,10523,1816,-1819,0
T,3960,87904,-89320,-2490,-983,3508,11402,1825,-1829,0
T,3980,88402,-89826,-2494,-85,545,9109,1836,-1839,0
T,4000,88901,-90333,-2497,-1301,4052,9928,1845,-1849,0
T,4020,89399,-90839,-2500,-291,3068,13009,1856,-1860,0
T,4040,89898,-91346,-2515,2902,-3030,7292,1867,-1870,0
T,4060,90402,-91858,-2536,-479,1472,9093,1877,-1882,0
T,4080,90907,-92371,-2522,-1580,4459,11908,1886,-1892,0
T,4100,91411,-92884,-2532,-633,1278,10413,1897,-1902,0
T,4120,91914,-93395,-2532,-159,3494,13007,1906,-1913,0
T,4140,92420,-93909,-2526,-1038,3116,10786,1916,-1924,0
T,4160,92926,-94424,-2533,267,3789,7490,1926,-1935,0
T,4180,93436,-94941,-2556,-2317,2129,9212,1937,-1946,0
T,4200,93947,-95460,-2574,283,-263,8801,1947,-1955,0
T,4220,94457,-95979,-2581,-2237,4972,16599,1959,-1966,0
T,4240,94970,-96500,-2586,-621,984,6499,1969,-1975,0
T,4260,95483,-97021,-2556,-552,3171,9933,1979,-1985,0
T,4280,95990,-97537,-2540,-1469,5341,16429,1990,-1995,0
T,4300,96496,-98051,-2539,-784,3511,7901,2000,-2005,0
T,4320,97003,-98566,-2556,229,3645,10459,2010,-2015,0
T,4340,97508,-99079,-2501,-1609,-151,7915,2019,-2025,0
T,4360,98011,-99621,-2540,-424,4387,6298,2029,-2035,0
T,4380,98550,-100137,-2557,-647,1415,14631,2039,-2047,0
T,4400,99057,-100653,-2527,-1244,2354,4158,2049,-2057,0
T,4420,99563,-101167,-2551,1129,4864,20389,2059,-2069,0
T,4440,100071,-101683,-2559,978,960,15560,2070,-2080,0
T,4460,100579,-102200,-2540,-495,3353,11794,2080,-2091,0
T,4480,101086,-102714,-2532,899,912,7566,2091,-2102,0
T,4500,101588,-103225,-2508,921,-1808,7299,2101,-2112,0
T,4520,102089,-103733,-2490,-408,1039,5706,2111,-2122,0
T,4540,102585,-104238,-2478,610,2768,10795,2121,-2131,0
T,4560,103076,-104737,-2455,-1460,3044,8565,2131,-2140,0
T,4580,103565,-105234,-2477,961,3983,16537,2142,-2149,0
T,4600,104053,-105729,-2428,224,1293,6294,2153,-2158,0
T,4620,104541,-106225,-2446,-95,3178,11896,2163,-2168,0
T,4640,105030,-106722,-2442,674,826,7762,2172,-2177,0
T,4660,105519,-107219,-2435,153,3178,8476,2182,-2187,0
T,4680,106006,-107714,-2439,-1078,1515,9045,2192,-2197,0
T,4700,106492,-108208,-2434,-2220,5233,10449,2202,-2207,0
T,4720,106979,-108703,-2436,-2002,3487,7106,2213,-2217,0
T,4740,107467,-109199,-2447,3385,14,13683,2223,-2227,0
T,4760,107958,-109697,-2459,-2230,3837,16560,2233,-2238,0
T,4780,108452,-110229,-2490,1468,258,12813,2243,-2248,0
T,4800,108946,-110731,-2483,-505,4040,9704,2252,-2259,0
T,4820,109470,-111234,-2484,-1533,560,7626,2262,-2269,0
T,4840,109970,-111741,-2497,1241,28,4237,2272,-2280,0
T,4860,110472,-112251,-2528,-408,521,4357,2282,-2291,0
T,4880,110974,-112761,-2508,-531,2799,8698,2293,-2302,0
T,4900,111474,-113269,-2508,1800,-1099,3526,2303,-2312,0
T,4920,111973,-113777,-2490,658,3051,8591,2314,-2322,0
T,4940,112474,-114286,-2510,-1026,4490,15393,2325,-2332,0
T,4960,112972,-114792,-2499,831,2739,11402,2336,-2342,0
T,4980,113468,-115296,-2478,2179,-333,8823,2345,-2352,0
T,5000,113961,-115798,-2465,134,2124,8424,2356,-2362,0
T,5020,114456,-116300,-2499,421,1954,10578,2366,-2372,0
T,5040,114950,-116802,-2480,1643,1894,8701,2375,-2381,0
T,5060,115442,-117302,-2453,-872,2943,8481,2385,-2391,0
T,5080,115933,-117801,-2467,-815,2289,9611,2395,-2401,0
T,5100,116426,-118302,-2499,-1370,-1066,4235,2405,-2412,0
T,5120,116921,-118805,-2469,-1813,5544,2905,2415,-2423,0
T,5140,117417,-119308,-2492,-1462,1793,6652,2427,-2434,0
T,5160,117914,-119814,-2506,-865,3563,12030,2436,-2444,0
T,5180,118410,-120317,-2507,653,3755,13611,2446,-2455,0
T,5200,118907,-120822,-2501,-1137,885,4787,2458,-2466,0
T,5220,119405,-121329,-2501,-443,3259,9276,2467,-2476,0
T,5240,119902,-121834,-2491,65,8172,12938,2478,-2486,0
T,5260,120399,-122368,-2491,340,2620,13210,2489,-2496,0
T,5280,120922,-122870,-2491,1418,1084,7767,2499,-2505,0
T,5300,121417,-123373,-2503,2041,-306,9143,2510,-2514,0
T,5320,121913,-123877,-2490,2198,-1844,4894,2520,-2523,0
T,5340,122409,-124381,-2492,632,3477,7473,2530,-2533,0
T,5360,122905,-124885,-2502,2451,-2623,13707,2540,-2543,0
T,5380,123401,-125389,-2509,87,1173,13021,2550,-2553,0
T,5400,123899,-125895,-2517,110,4565,15744,2560,-2564,0
T,5420,124400,-126404,-2513,2072,792,11127,2571,-2574,0
T,5440,124901,-126913,-2528,1665,318,12696,2581,-2584,0
T,5460,125403,-127423,-2524,-270,224,7366,2591,-2595,0
T,5480,125907,-127936,-2536,-149,4960,14853,2601,-2606,0
T,5500,126412,-128449,-2539,-2502,2198,10521,2611,-2617,0
T,5520,126919,-128964,-2534,-1912,6455,15113,2621,-2628,0
T,5540,127427,-129480,-2553,-107,-1748,9267,2631,-2639,0
T,5560,127935,-129996,-2547,-374,3477,14153,2641,-2650,0
T,5580,128442,-130512,-2531,-675,1163,2902,2651,-2661,0
T,5600,128952,-131030,-2554,-2322,4234,9589,2662,-2671,0
T,5620,129463,-131549,-2565,622,797,9238,2673,-2681,0
T,5640,129974,-132068,-2572,1248,2098,13504,2684,-2691,0
T,5660,130484,-132587,-2572,3072,1381,4770,2695,-2700,0
T,5680,130993,-133134,-2522,-616,4251,10931,2705,-2711,0
T,5700,131496,-133644,-2497,-512,4397,3227,2714,-2720,0
T,5720,131997,-134154,-2534,1139,284,11574,2724,-2731,0
T,5740,132528,-134663,-2510,-97,1930,20967,2735,-2740,0
T,5760,133026,-135170,-2504,1409,-26,4469,2744,-2750,0
T,5780,133528,-135680,-2544,2665,1024,13148,2754,-2760,0
T,5800,134036,-136195,-2564,1297,4608,12940,2763,-2771,0
T,5820,134541,-136709,-2546,1416,-2905,10382,2773,-2782,0
T,5840,135046,-137222,-2545,3188,3032,15240,2784,-2794,0
T,5860,135550,-137734,-2540,-1846,265,5047,2795,-2804,0
T,5880,136054,-138246,-2527,98,1068,10308,2805,-2815,0
T,5900,136555,-138755,-2526,530,-2239,2757,2815,-2826,0
T,5920,137058,-139266,-2513,-2604,71,10151,2825,-2836,0
T,5940,137556,-139773,-2471,91,2624,7368,2835,-2846,0
T,5960,138051,-140275,-2471,-1031,3369,10633,2846,-2856,0
T,5980,138543,-140775,-2465,-1175,1238,12806,2856,-2865,0
T,6000,139038,-141278,-2494,435,2074,11918,2867,-2874,0
T,6020,139532,-141780,-2460,94,3149,11416,2878,-2883,0
T,6040,140022,-142278,-2457,1068,1338,8591,2888,-2892,0
T,6060,140512,-142776,-2481,125,3772,9864,2898,-2902,0
T,6080,141002,-143274,-2455,-1381,-877,14392,2907,-2912,0
T,6100,141492,-143772,-2453,1307,2780,13270,2917,-2922,0
T,6120,141982,-144269,-2451,2985,459,11865,2927,-2932,0
T,6140,142472,-144767,-2472,1591,3132,10432,2937,-2942,0
T,6160,142963,-145296,-2483,27,2054,9957,2948,-2952,0
T,6180,143486,-145798,-2484,1188,-2089,8572,2958,-2964,0
T,6200,143981,-146301,-2494,-1296,2344,15519,2968,-2974,0
T,6220,144478,-146805,-2490,-40,1178,10578,2978,-2985,0
T,6240,144975,-147310,-2492,-57,1834,5257,2987,-2996,0
T,6260,145474,-147817,-2501,-1806,3365,7557,2997,-3006,0
T,6280,145977,-148329,-2536,-1879,5020,11407,3007,-3017,0
T,6300,146483,-148843,-2532,186,488,8858,3018,-3027,0
T,6320,146989,-149357,-2528,-611,3968,9792,3028,-3037,0
T,6340,147496,-149872,-2537,257,1949,5871,3040,-3047,0
T,6360,148003,-150387,-2534,-1422,1199,4607,3051,-3057,0
T,6380,148507,-150900,-2489,-2659,7707,12219,3061,-3067,0
T,6400,149004,-151404,-2497,1608,1968,17088,3071,-3077,0
T,6420,149499,-151908,-2494,1496,105,14091,3081,-3086,0
T,6440,149997,-152413,-2494,478,3094,9897,3091,-3096,0
T,6460,150490,-152914,-2467,-1417,2502,5897,3100,-3106,0
T,6480,150980,-153413,-2471,525,-661,10079,3110,-3116,0
T,6500,151473,-153914,-2485,-1718,557,8572,3120,-3127,0
T,6520,151968,-154417,-2480,-536,1151,5396,3130,-3137,0
T,6540,152463,-154919,-2501,245,1094,12553,3140,-3148,0
T,6560,152959,-155423,-2476,-531,-488,5603,3151,-3158,0
T,6580,153455,-155957,-2514,1357,-2599,11134,3162,-3170,0
T,6600,153951,-156461,-2517,1577,1379,16694,3172,-3180,0
T,6620,154446,-156964,-2476,-1040,4519,8730,3182,-3190,0
T,6640,154970,-157466,-2474,279,-120,9355,3192,-3200,0
T,6660,155462,-157967,-2464,-671,840,5314,3202,-3210,0
T,6680,155955,-158468,-2483,113,4191,7920,3213,-3220,0
T,6700,156449,-158969,-2467,-472,100,7968,3224,-3229,0
T,6720,156941,-159469,-2474,101,3439,10053,3235,-3238,0
T,6740,157434,-159971,-2492,-36,950,9248,3244,-3248,0
T,6760,157931,-160476,-2495,1262,-1212,7151,3255,-3258,0
T,6780,158429,-160982,-2510,1269,-510,9420,3265,-3268,0
T,6800,158925,-161485,-2475,-1905,6055,12842,3275,-3278,0
T,6820,159419,-161988,-2482,-656,3108,14411,3284,-3288,0
T,6840,159916,-162492,-2491,2110,1139,12560,3295,-3298,0
T,6860,160413,-162998,-2502,816,1793,6936,3305,-3309,0
T,6880,160913,-163505,-2511,23,129,9078,3315,-3319,0
T,6900,161414,-164015,-2504,1385,1590,11849,3325,-3330,0
T,6920,161914,-164522,-2532,319,1659,14889,3335,-3341,0
T,6940,162417,-165034,-2529,-735,-407,10771,3344,-3352,0
T,6960,162924,-165549,-2556,1376,2160,9962,3354,-3362,0
T,6980,163431,-166064,-2544,1942,394,10146,3365,-3373,0
T,7000,163939,-166581,-2559,-199,2713,11189,3376,-3383,0
T,7020,164448,-167097,-2554,-775,1923,9164,3386,-3394,0
T,7040,164957,-167615,-2575,-17,4704,12637,3397,-3404,0
T,7060,165471,-168167,-2577,-1590,3518,7349,3408,-3414,0
T,7080,166014,-168689,-2579,30,4625,14765,3418,-3424,0
T,7100,166523,-169206,-2524,-1562,4632,8641,3428,-3434,0
T,7120,167029,-169720,-2546,1338,-64,7619,3438,-3443,0
T,7140,167536,-170235,-2547,1511,3135,11863,3448,-3456,0
T,7160,168039,-170746,-2527,-232,830,7626,3458,-3464,0
T,7180,168539,-171255,-2510,-204,2761,11373,3467,-3474,0
T,7200,169040,-171763,-2546,222,1580,10466,3477,-3485,0
T,7220,169545,-172276,-2539,1513,-407,8942,3487,-3496,0
T,7240,170049,-172788,-2545,-908,2771,7160,3497,-3506,0
T,7260,170550,-173297,-2517,-2230,4016,9857,3507,-3517,0
T,7280,171043,-173799,-2481,-799,-1873,3017,3517,-3528,0
T,7300,171529,-174292,-2454,-1635,193,13430,3526,-3538,0
T,7320,172006,-174777,-2386,-2028,3032,11643,3536,-3547,0
T,7340,172477,-175256,-2352,2051,-3816,-517,3545,-3556,0
T,7360,172939,-175726,-2297,1994,3259,10000,3553,-3564,0
T,7380,173388,-176181,-2213,805,1499,9336,3562,-3573,0
T,7400,173818,-176619,-2120,-540,5080,11149,3570,-3579,0
T,7420,174233,-177041,-2059,-602,1877,9682,3578,-3586,0
T,7440,174634,-177448,-1978,1260,806,10893,3586,-3592,0
T,7460,175019,-177838,-1893,1132,1053,8498,3593,-3599,0
T,7480,175386,-178233,-1797,572,2898,10344,3601,-3605,0
T,7500,175737,-178589,-1732,1098,23,9128,3607,-3611,0
T,7520,176073,-178929,-1645,2158,-984,9224,3613,-3617,0
T,7540,176410,-179252,-1556,425,2136,14122,3619,-3623,0
T,7560,176710,-179557,-1478,290,873,8916,3625,-3628,0
T,7580,176997,-179849,-1406,-64,2574,9379,3630,-3634,0
T,7600,177268,-180125,-1312,2129,-160,9217,3635,-3639,0
T,7620,177525,-180385,-1257,814,1384,11082,3640,-3643,0
T,7640,177768,-180633,-1196,1302,-2043,8259,3644,-3647,0
T,7660,177999,-180867,-1123,1432,-330,7399,3649,-3652,0
T,7680,178216,-181087,-1064,544,-64,9549,3653,-3656,0
T,7700,178422,-181297,-1015,148,-1370,7958,3657,-3660,0
T,7720,178618,-181495,-953,885,112,9704,3661,-3663,0
T,7740,178801,-181681,-890,729,1266,11533,3665,-3666,0
T,7760,178972,-181856,-838,686,248,8837,3668,-3669,0
T,7780,179134,-182020,-781,-277,1463,10974,3671,-3671,0
T,7800,179282,-182170,-707,1838,-843,7065,3674,-3674,0
T,7820,179417,-182308,-651,833,191,8921,3676,-3676,0
T,7840,179541,-182433,-586,68,550,9936,3679,-3679,0
T,7860,179650,-182545,-519,518,402,9945,3681,-3681,0
T,7880,179747,-182643,-454,925,921,10029,3682,-3682,0
T,7900,179830,-182727,-383,1172,414,9432,3684,-3683,0
T,7920,179900,-182798,-318,433,354,10048,3686,-3685,0
T,7940,179953,-182852,-208,779,596,9269,3687,-3685,0
T,7960,179985,-182886,-111,1113,279,9876,3688,-3685,0
T,7980,179999,-182899,-30,662,-153,9737,3689,-3685,0
T,8000,180000,-182900,8,-97,-211,9697,3689,-3685,0
# 記録の数: 401 / 間隔: 20 ms
# 止まった時 rotation Z: -1829.0 / モーター 左/右: 3689 -3685 度
# 命令: 1800 度 / 止まった時のジャイロ h1: 1800.0 度
# 定規に合わせ直した時のジャイロ h2: 1798.2 度
# 本当のズレ（＋は回り足りない）: -1.79 度（ジャイロの目盛りで）
# モーターで回ったときのジャイロの 1 周の読み: 359.641 度（360 なら目盛りは合っている）
# 電池: 7842 mV

==================================================
終了コード: 0
終了日時  : 2026-09-19 11:20:26
実行時間  : 30.9 秒
