ms,heading,rotZ,wz,ax,ay,az,left,right,stationary,enc_heading,acc_abs
0,0.0,0.0,0.0,53,61,9833,0,0,1,0.0,9833.3
20,0.0,0.0,-0.1,61,49,9821,0,0,0,0.0,9821.3
40,0.0,0.0,-0.2,-152,-117,9761,0,0,0,0.0,9762.9
60,0.0,0.0,0.0,174,124,9752,0,0,0,0.0,9754.3
80,0.0,0.0,0.0,-66,28,9807,0,0,0,0.0,9807.3
100,0.0,0.0,0.1,172,49,9778,0,0,0,0.0,9779.6
120,0.0,0.0,0.0,-109,95,9799,0,0,0,0.0,9800.1
140,0.0,0.0,0.0,132,9,9842,0,0,0,0.0,9842.9
160,0.0,0.0,-0.1,-81,21,9802,0,0,0,0.0,9802.4
180,0.01,-0.01,0.0,98,42,9802,0,0,0,0.0,9802.6
200,0.01,-0.01,0.0,-17,-5,9835,0,0,0,0.0,9835.0
220,0.01,-0.01,-0.2,63,-14,9823,0,0,0,0.0,9823.2
240,0.01,-0.01,-0.1,32,16,9814,0,0,0,0.0,9814.1
260,0.01,-0.01,-0.4,-88,-43,9802,0,0,0,0.0,9802.5
280,0.06,-0.06,-7.7,-1557,-146,9546,0,-2,0,0.54,9673.2
300,0.5,-0.5,-34.3,-1562,-285,10332,3,-7,0,2.72,10453.3
320,1.4,-1.42,-54.9,-1216,-45,9417,9,-14,0,6.26,9495.3
340,2.72,-2.76,-75.5,-1585,52,9620,17,-20,0,10.07,9749.8
360,4.4,-4.47,-91.0,-1242,725,10786,25,-27,0,14.15,10881.5
380,6.38,-6.48,-106.0,-344,-433,7619,32,-33,0,17.69,7639.0
400,8.57,-8.7,-114.1,-1628,531,9604,39,-39,0,21.23,9755.5
420,10.92,-11.1,-123.0,-355,-1353,6635,45,-46,0,24.77,6780.8
440,13.45,-13.67,-131.2,-2073,471,9587,51,-53,0,28.31,9819.9
460,16.15,-16.41,-140.8,-2820,4385,10103,58,-60,0,32.12,11368.9
480,19.08,-19.38,-152.1,302,112,7977,65,-67,0,35.93,7983.5
500,22.19,-22.55,-160.8,-1661,1690,11669,70,-75,0,39.47,11907.2
520,25.46,-25.87,-167.2,-578,-254,8099,78,-82,0,43.55,8123.6
540,28.85,-29.32,-173.6,-1521,3774,15698,88,-90,0,48.45,16216.8
560,32.4,-33.14,-183.5,-173,2306,14308,97,-99,0,53.35,14493.7
580,36.12,-36.94,-191.8,286,265,10320,105,-107,0,57.7,10327.4
600,40.22,-40.87,-197.4,-69,2639,9386,113,-115,0,62.06,9750.2
620,44.16,-44.87,-199.6,-2393,2608,10521,121,-124,0,66.69,11100.4
640,48.16,-48.94,-203.9,527,1997,10518,129,-134,0,71.59,10718.9
660,52.26,-53.11,-208.8,-562,2361,9678,138,-144,0,76.76,9977.7
680,56.44,-57.35,-210.1,260,-1392,5147,147,-154,0,81.93,5338.2
700,60.69,-61.66,-215.1,1051,-326,9998,157,-163,0,87.1,10058.4
720,65.01,-66.05,-220.2,1570,176,10196,166,-174,0,92.54,10317.7
740,69.39,-70.5,-221.3,243,591,8343,178,-183,0,98.26,8367.4
760,73.83,-75.02,-227.4,2013,-1468,12895,191,-195,0,105.06,13133.5
780,78.36,-79.62,-230.7,1956,1841,18266,199,-207,0,110.51,18462.4
800,82.96,-84.29,-231.2,-2353,675,7848,209,-217,0,115.95,8220.9
820,87.59,-89.0,-233.7,-1159,4833,8978,220,-229,0,122.21,10261.9
840,92.3,-93.79,-240.1,1530,-963,13215,230,-241,0,128.2,13338.1
860,97.08,-98.64,-240.7,-3163,919,8364,241,-252,0,134.19,8989.2
880,101.88,-103.53,-242.3,-2047,2833,7648,253,-263,0,140.45,8408.8
900,106.77,-108.49,-246.0,871,5611,12830,264,-275,0,146.71,14030.4
920,111.74,-113.54,-251.0,935,-2285,9119,276,-286,0,152.97,9447.3
940,116.78,-118.66,-254.0,-443,4498,10217,288,-297,0,159.23,11172.1
960,121.88,-123.84,-257.5,-922,6646,18213,300,-308,0,165.49,19409.6
980,126.99,-129.04,-255.6,-1161,2725,16453,311,-318,0,171.21,16717.5
1000,132.09,-134.21,-257.6,196,2581,13064,323,-329,0,177.47,13318.0
1020,137.23,-139.44,-262.8,-872,1190,14246,334,-341,0,183.73,14322.2
1040,142.43,-145.03,-261.6,-1708,1575,12259,344,-352,0,189.44,12477.2
1060,147.97,-150.35,-264.3,544,1954,10408,355,-365,0,195.97,10603.8
1080,153.23,-155.7,-264.8,-66,1132,13446,366,-378,0,202.51,13493.7
1100,158.53,-161.08,-267.8,63,-55,9456,378,-389,0,208.77,9456.4
1120,163.87,-166.51,-270.0,-820,3384,12610,389,-402,0,215.3,13081.9
1140,169.22,-171.95,-268.9,-945,-795,4954,401,-414,0,221.83,5105.6
1160,174.54,-177.36,-265.1,181,878,7289,412,-426,0,228.09,7343.9
1180,179.85,-182.74,-267.6,-427,45,9833,424,-437,0,234.35,9842.4
1200,185.12,-188.11,-264.0,-242,-443,11256,434,-448,0,240.07,11267.3
1220,190.33,-193.4,-261.6,3259,-381,12641,446,-458,0,246.06,13059.9
1240,195.51,-198.66,-259.3,-216,2301,6138,457,-467,0,251.5,6558.7
1260,200.73,-203.96,-262.7,1395,3139,10991,468,-477,0,257.22,11515.3
1280,205.96,-209.28,-262.5,1248,-261,7855,480,-487,0,263.21,7957.8
1300,211.19,-214.6,-263.5,-1559,1111,15677,490,-498,0,268.92,15793.5
1320,216.4,-219.89,-261.4,-329,1199,7695,501,-508,0,274.64,7794.8
1340,221.58,-225.15,-260.8,-277,2145,7000,512,-519,0,280.63,7326.5
1360,226.77,-230.43,-262.3,-263,902,16288,521,-529,0,285.8,16315.1
1380,231.99,-235.73,-264.1,741,754,15789,532,-540,0,291.78,15824.4
1400,237.21,-241.03,-262.6,-396,2644,11407,543,-551,0,297.77,11716.1
1420,242.42,-246.33,-261.5,-2171,2064,12591,554,-562,0,303.76,12942.4
1440,247.61,-251.6,-261.1,-261,1094,9255,564,-573,0,309.48,9323.1
1460,252.79,-257.17,-260.0,397,1077,5006,575,-584,0,315.47,5135.9
1480,257.99,-262.46,-263.6,762,4074,11146,585,-595,0,321.18,11891.7
1500,263.23,-267.78,-262.1,-687,5916,21674,594,-606,0,326.62,22477.4
1520,268.75,-273.08,-263.6,1778,-429,9284,605,-616,0,332.34,9462.5
1540,273.95,-278.37,-261.4,-5028,-4714,16458,616,-627,0,338.33,17842.9
1560,279.15,-283.64,-258.3,1302,8316,1971,627,-637,0,344.04,8645.0
1580,284.36,-288.94,-261.0,-609,1753,5353,638,-647,0,349.76,5665.6
1600,289.59,-294.26,-264.1,997,4613,11806,649,-657,0,355.48,12714.4
1620,294.81,-299.56,-260.5,-434,-1145,4180,660,-667,0,361.19,4355.7
1640,299.96,-304.79,-255.8,89,4938,8768,670,-676,0,366.36,10063.3
1660,305.07,-309.99,-257.9,-1126,2117,13976,679,-689,0,372.35,14180.2
1680,310.19,-315.19,-258.4,153,1408,8281,690,-697,0,377.52,8401.2
1700,315.28,-320.36,-255.2,1037,1954,8503,700,-707,0,382.97,8786.0
1720,320.32,-325.48,-254.9,2866,-2192,8837,709,-718,0,388.41,9545.2
1740,325.33,-330.57,-251.3,2295,-2877,7779,719,-729,0,394.13,8605.6
1760,330.34,-335.66,-250.1,1470,4222,7789,729,-740,0,399.84,8980.8
1780,335.33,-340.73,-248.9,-1945,5736,12006,740,-750,0,405.56,13447.3
1800,340.32,-345.8,-249.3,-2014,3286,5477,750,-761,0,411.27,6697.1
1820,345.32,-350.88,-251.3,2733,1477,13088,761,-773,0,417.54,13451.6
1840,350.27,-355.91,-249.3,-1033,-1914,4154,771,-782,0,422.71,4688.9
1860,355.22,-360.94,-250.6,-1230,2133,11798,782,-793,0,428.69,12052.2
1880,360.18,-365.98,-249.2,-382,3944,12266,792,-802,0,433.87,12890.1
1900,365.09,-370.98,-246.1,-2024,5259,12489,802,-811,0,439.04,13701.4
1920,369.95,-375.91,-244.2,255,1379,2804,813,-821,0,444.75,3135.1
1940,374.84,-381.18,-247.8,463,1168,9606,823,-829,0,449.65,9687.8
1960,380.04,-386.16,-245.6,-1272,3106,14411,834,-838,0,455.1,14796.7
1980,384.92,-391.12,-244.1,316,4165,10265,844,-848,0,460.54,11082.3
2000,389.81,-396.09,-245.9,395,-821,9174,854,-857,0,465.71,9219.1
2020,394.68,-401.04,-243.8,1658,-1514,5553,864,-867,0,471.16,5989.7
2040,399.54,-405.98,-244.4,-716,3987,13045,874,-877,0,476.6,13659.5
2060,404.4,-410.92,-243.0,-320,3489,13387,884,-887,0,482.04,13837.9
2080,409.26,-415.85,-243.7,2252,-568,8691,894,-897,0,487.49,8996.0
2100,414.11,-420.78,-244.4,2051,-179,10456,904,-907,0,492.93,10656.8
2120,418.97,-425.72,-244.7,25,1650,7029,915,-918,0,498.92,7220.1
2140,423.85,-430.68,-244.4,-2199,6634,13081,925,-929,0,504.64,14831.0
2160,428.71,-435.62,-243.8,-2059,-563,9045,935,-940,0,510.35,9293.5
2180,433.57,-440.55,-245.5,1416,339,6298,944,-951,0,515.79,6464.1
2200,438.46,-445.53,-246.7,340,3551,12828,954,-962,0,521.51,13314.8
2220,443.36,-450.51,-246.6,-680,2502,9687,964,-972,0,526.95,10028.0
2240,448.3,-455.52,-248.8,-730,2016,11531,975,-983,0,532.94,11728.6
2260,453.28,-460.59,-251.0,-2604,2021,8691,986,-992,0,538.39,9295.1
2280,458.29,-465.67,-252.2,1551,627,15288,997,-1003,0,544.37,15379.3
2300,463.3,-470.76,-253.5,1816,-2381,12517,1008,-1012,0,549.82,12870.2
2320,468.34,-475.89,-252.2,-325,2371,9360,1019,-1023,0,555.81,9661.1
2340,473.38,-481.01,-252.3,738,-977,10936,1029,-1033,0,561.25,11004.3
2360,478.42,-486.44,-255.7,816,-354,8918,1038,-1043,0,566.42,8962.2
2380,483.5,-491.59,-256.3,2181,3326,14328,1049,-1053,0,572.14,14869.8
2400,488.57,-496.74,-252.0,-55,2136,8844,1059,-1064,0,577.85,9098.5
2420,493.91,-501.87,-253.8,165,-884,4323,1068,-1074,0,583.03,4415.5
2440,498.99,-507.03,-255.3,-462,-929,6465,1079,-1085,0,589.01,6547.7
2460,504.09,-512.21,-255.6,155,5861,12426,1089,-1096,0,594.73,13739.8
2480,509.2,-517.4,-257.2,-851,3357,13191,1100,-1107,0,600.72,13638.0
2500,514.35,-522.63,-259.4,-2493,4462,10905,1111,-1118,0,606.71,12043.4
2520,519.5,-527.87,-259.3,-351,236,4801,1121,-1130,0,612.69,4819.6
2540,524.64,-533.09,-257.9,37,2327,12649,1132,-1140,0,618.41,12861.3
2560,529.76,-538.3,-257.6,-877,4354,8476,1142,-1151,0,624.13,9569.2
2580,534.89,-543.51,-257.6,-832,3628,11402,1152,-1161,0,629.57,11994.2
2600,539.96,-548.66,-254.7,-934,-38,2974,1162,-1170,0,634.74,3117.4
2620,545.0,-553.78,-255.2,-436,1058,10807,1173,-1180,0,640.46,10867.4
2640,550.07,-558.94,-253.3,-678,4464,10564,1183,-1189,0,645.63,11488.5
2660,555.11,-564.05,-251.2,-1201,3585,10155,1194,-1198,0,651.07,10836.0
2680,560.11,-569.14,-251.7,-64,2399,15001,1204,-1208,0,656.52,15191.8
2700,565.12,-574.22,-251.7,42,1748,12450,1214,-1218,0,661.96,12572.2
2720,570.11,-579.29,-251.0,-2052,426,12087,1224,-1228,0,667.4,12267.3
2740,575.08,-584.35,-250.5,-547,3777,11636,1234,-1238,0,672.85,12245.9
2760,580.07,-589.42,-252.0,1238,790,12890,1244,-1248,0,678.29,12973.4
2780,585.08,-594.51,-251.4,217,5221,15003,1254,-1259,0,684.01,15887.0
2800,590.1,-599.61,-252.9,970,1355,7404,1264,-1269,0,689.45,7589.2
2820,595.14,-604.73,-254.2,-76,1163,11875,1275,-1279,0,695.17,11932.1
2840,600.17,-610.13,-251.5,-1315,-853,13597,1284,-1291,0,700.88,13687.0
2860,605.43,-615.19,-249.3,2534,759,14750,1294,-1301,0,706.33,14985.3
2880,610.41,-620.25,-249.9,-3097,6452,12095,1304,-1312,0,712.04,14053.8
2900,615.43,-625.34,-253.2,300,76,16126,1313,-1322,0,717.21,16129.0
2920,620.48,-630.47,-253.8,151,1709,9551,1323,-1333,0,722.93,9703.9
2940,625.55,-635.62,-254.8,-687,4917,10912,1334,-1343,0,728.65,11988.4
2960,630.62,-640.78,-258.4,1018,-7715,5725,1344,-1353,0,734.09,9660.9
2980,635.71,-645.95,-253.6,878,684,13991,1355,-1363,0,739.81,14035.2
3000,640.77,-651.09,-255.9,-4770,8256,15175,1366,-1373,0,745.52,17921.9
3020,645.85,-656.26,-256.8,-308,406,13840,1377,-1383,0,751.24,13849.4
3040,650.9,-661.39,-254.0,3615,-594,7609,1386,-1393,0,756.41,8445.0
3060,655.9,-666.47,-250.1,-1678,4407,10117,1396,-1402,0,761.58,11162.0
3080,660.89,-671.54,-248.9,1286,-2527,772,1406,-1412,0,767.02,2938.6
3100,665.87,-676.59,-248.3,-1317,4912,6124,1416,-1422,0,772.47,7960.3
3120,670.8,-681.6,-248.0,-1377,1906,12042,1426,-1432,0,777.91,12269.4
3140,675.74,-686.62,-248.7,-1616,4258,11273,1436,-1443,0,783.63,12158.2
3160,680.67,-691.64,-245.6,1399,277,6807,1445,-1454,0,789.07,6954.8
3180,685.6,-696.65,-246.7,-334,9,10327,1455,-1465,0,794.79,10332.4
3200,690.53,-701.66,-248.6,589,-64,7077,1466,-1475,0,800.5,7101.8
3220,695.49,-706.69,-247.8,985,3880,8352,1476,-1486,0,806.22,9261.8
3240,700.42,-711.7,-246.8,1551,-342,4686,1487,-1497,0,812.21,4947.8
3260,705.31,-716.97,-245.8,1482,1995,11347,1497,-1507,0,817.65,11616.0
3280,710.22,-721.96,-246.0,2210,-385,7789,1508,-1517,0,823.37,8105.6
3300,715.11,-726.92,-243.9,153,3362,5938,1517,-1527,0,828.54,6825.4
3320,720.23,-731.83,-242.6,-223,3070,12025,1527,-1535,0,833.44,12412.7
3340,725.09,-736.77,-244.2,-100,1968,14874,1538,-1544,0,838.88,15004.0
3360,729.97,-741.73,-244.4,80,-2089,8080,1549,-1553,0,844.32,8346.1
3380,734.86,-746.7,-246.5,-1915,5537,15667,1559,-1563,0,849.77,16726.6
3400,739.77,-751.69,-245.1,-237,-1020,6764,1569,-1573,0,855.21,6844.6
3420,744.68,-756.68,-247.3,530,2347,10033,1579,-1583,0,860.66,10317.5
3440,749.57,-761.64,-244.4,-972,4088,7108,1589,-1593,0,866.1,8257.1
3460,754.45,-766.6,-248.2,-1370,1681,15746,1600,-1603,0,871.82,15894.6
3480,759.34,-771.57,-244.6,-438,3705,10927,1609,-1613,0,876.99,11546.3
3500,764.23,-776.54,-245.7,1563,1676,14514,1619,-1623,0,882.43,14693.8
3520,769.12,-781.51,-246.2,-967,5947,14526,1630,-1635,0,888.69,15726.0
3540,774.03,-786.5,-245.6,1352,-242,10905,1640,-1646,0,894.41,10991.2
3560,778.92,-791.47,-244.6,-1671,5714,14320,1650,-1656,0,899.85,15508.2
3580,783.78,-796.41,-244.4,-618,1491,9281,1660,-1667,0,905.57,9420.3
3600,788.69,-801.39,-248.1,2508,-1327,12085,1670,-1678,0,911.28,12413.6
3620,793.61,-806.4,-248.1,-2694,2876,15245,1680,-1688,0,916.73,15746.1
3640,798.52,-811.38,-247.4,693,2950,4061,1690,-1699,0,922.44,5067.0
3660,803.44,-816.39,-248.6,724,-2,8039,1701,-1709,0,928.16,8071.5
3680,808.41,-821.43,-251.4,-1104,9109,15873,1711,-1719,0,933.6,18334.3
3700,813.4,-826.5,-252.9,1639,1393,11672,1723,-1728,0,939.32,11868.5
3720,818.42,-831.61,-252.4,-1289,2409,7433,1734,-1738,0,945.03,7919.2
3740,823.45,-837.02,-253.3,-735,2138,10707,1744,-1748,0,950.48,10943.1
3760,828.74,-842.09,-251.3,-915,1765,9066,1754,-1757,0,955.65,9281.4
3780,833.76,-847.2,-252.1,-813,2177,9952,1765,-1768,0,961.64,10219.7
3800,838.82,-852.33,-252.5,-1147,306,7755,1775,-1778,0,967.08,7845.3
3820,843.84,-857.44,-252.2,-1393,4004,9439,1784,-1788,0,972.25,10347.3
3840,848.87,-862.55,-253.6,-161,1199,10084,1794,-1799,0,977.97,10156.3
3860,853.96,-867.71,-256.6,1212,4043,13028,1805,-1810,0,983.96,13694.7
3880,859.06,-872.9,-256.0,-2398,3650,12147,1815,-1821,0,989.67,12908.2
3900,864.18,-878.1,-257.1,-1699,2165,7246,1825,-1833,0,995.66,7751.0
3920,869.33,-883.34,-259.4,68,-79,10217,1836,-1844,0,1001.65,10217.5
3940,874.47,-888.56,-258.5,1172,1563,12391,1846,-1855,0,1007.37,12544.1
3960,879.59,-893.77,-258.4,293,1748,14659,1857,-1866,0,1013.35,14765.8
3980,884.73,-898.98,-258.4,2539,2258,10048,1867,-1876,0,1018.8,10607.0
4000,889.82,-904.16,-254.6,1404,2009,12618,1877,-1886,0,1024.24,12853.8
4020,894.84,-909.26,-251.1,-564,2874,8570,1888,-1895,0,1029.68,9056.6
4040,899.88,-914.38,-252.9,231,2227,8770,1899,-1904,0,1035.13,9051.3
4060,904.94,-919.52,-254.0,1380,255,5856,1909,-1914,0,1040.57,6021.8
4080,909.96,-924.62,-253.8,757,-845,7839,1920,-1924,0,1046.29,7920.7
4100,914.99,-929.73,-251.5,-1066,708,8629,1929,-1933,0,1051.19,8723.4
4120,920.0,-934.82,-250.6,226,2184,5200,1940,-1944,0,1057.18,5644.5
4140,925.0,-939.9,-251.3,1205,1096,16023,1950,-1954,0,1062.62,16105.6
4160,930.0,-945.28,-252.5,-242,157,7509,1960,-1964,0,1068.06,7514.5
4180,935.32,-950.39,-252.4,-1486,4443,8565,1969,-1974,0,1073.23,9762.6
4200,940.35,-955.5,-252.6,-190,93,8027,1980,-1984,0,1078.95,8029.8
4220,945.4,-960.63,-254.8,933,4033,11944,1990,-1995,0,1084.67,12641.0
4240,950.49,-965.8,-255.5,-870,3001,6628,2000,-2006,0,1090.38,7327.6
4260,955.54,-970.93,-253.1,899,727,10927,2010,-2016,0,1095.83,10988.0
4280,960.54,-976.02,-252.0,-405,1918,10232,2020,-2027,0,1101.54,10418.1
4300,965.56,-981.11,-252.7,2331,193,12761,2029,-2037,0,1106.71,12973.6
4320,970.57,-986.21,-255.0,880,2529,15204,2039,-2048,0,1112.43,15438.0
4340,975.61,-991.33,-257.0,58,-350,19133,2049,-2059,0,1118.15,19136.3
4360,980.7,-996.5,-253.6,2847,-8894,-7674,2059,-2068,0,1123.32,12087.1
4380,985.81,-1001.7,-256.8,-1514,4426,9764,2070,-2078,0,1129.03,10826.7
4400,990.9,-1006.86,-253.8,402,-6563,3590,2081,-2088,0,1134.75,7491.5
4420,996.0,-1012.04,-258.3,-512,6162,7953,2091,-2098,0,1140.19,10073.9
4440,1001.07,-1017.2,-254.0,-341,1918,6812,2102,-2107,0,1145.64,7085.1
4460,1006.09,-1022.3,-251.0,224,-1221,4416,2112,-2116,0,1150.81,4587.2
4480,1011.08,-1027.37,-251.3,2032,1597,6578,2122,-2129,0,1157.07,7067.5
4500,1016.06,-1032.43,-250.6,1321,-1696,12123,2132,-2137,0,1161.97,12312.1
4520,1020.99,-1037.44,-246.1,-3102,3961,9685,2141,-2147,0,1167.14,10913.8
4540,1025.91,-1042.44,-247.5,1051,-1506,7891,2150,-2158,0,1172.58,8101.9
4560,1030.87,-1047.48,-250.4,1786,246,12049,2160,-2169,0,1178.3,12183.1
4580,1035.83,-1052.52,-250.1,-1877,2289,4462,2170,-2179,0,1183.74,5354.6
4600,1040.74,-1057.51,-247.8,75,-1514,7072,2181,-2190,0,1189.73,7232.6
4620,1045.69,-1062.54,-250.3,-720,2684,10561,2191,-2201,0,1195.45,10920.5
4640,1050.65,-1067.87,-249.4,-1554,1015,14726,2202,-2212,0,1201.43,14842.5
4660,1055.85,-1072.86,-245.8,91,1192,4772,2212,-2222,0,1206.88,4919.5
4680,1060.75,-1077.85,-248.5,196,706,14201,2222,-2233,0,1212.59,14219.9
4700,1065.65,-1082.82,-245.0,-1327,2471,7003,2232,-2242,0,1217.77,7543.8
4720,1070.48,-1087.73,-241.9,-367,1623,8238,2242,-2251,0,1222.94,8404.4
4740,1075.28,-1092.61,-243.0,-1441,4692,9728,2253,-2261,0,1228.65,10896.1
4760,1080.14,-1097.54,-244.6,-848,2155,10437,2263,-2269,0,1233.55,10690.8
4780,1085.01,-1102.49,-244.4,-796,4361,14573,2274,-2279,0,1239.27,15232.3
4800,1089.86,-1107.42,-243.7,556,2045,12797,2284,-2288,0,1244.44,12971.3
4820,1094.73,-1112.37,-244.1,-1201,1889,15949,2294,-2298,0,1249.88,16105.3
4840,1099.6,-1117.32,-244.7,670,2366,11672,2304,-2308,0,1255.33,11928.2
4860,1104.46,-1122.26,-245.1,1283,-1547,11980,2314,-2318,0,1260.77,12147.4
4880,1109.34,-1127.22,-246.5,-656,2459,7129,2324,-2328,0,1266.22,7569.7
4900,1114.24,-1132.19,-245.4,354,2186,10010,2335,-2338,0,1271.93,10252.0
4920,1119.13,-1137.16,-245.7,1603,-1784,6160,2345,-2349,0,1277.65,6610.4
4940,1124.04,-1142.15,-247.7,1233,260,11497,2355,-2359,0,1283.09,11565.9
4960,1128.96,-1147.15,-247.1,-756,-1233,8211,2365,-2371,0,1289.08,8337.4
4980,1133.85,-1152.12,-248.3,-4969,11444,20093,2375,-2381,0,1294.52,23651.3
5000,1138.74,-1157.08,-244.6,-1064,2165,17981,2385,-2392,0,1300.24,18142.1
5020,1143.64,-1162.07,-247.8,2812,1719,11046,2395,-2402,0,1305.68,11527.2
5040,1148.56,-1167.07,-246.0,1025,3458,17490,2405,-2413,0,1311.4,17858.0
5060,1153.5,-1172.38,-249.4,-1320,4035,12818,2415,-2423,0,1316.84,13502.8
5080,1158.49,-1177.45,-251.3,4285,-3150,2482,2426,-2433,0,1322.56,5868.9
5100,1163.79,-1182.54,-252.4,-211,2430,11454,2437,-2443,0,1328.27,11710.8
5120,1168.83,-1187.66,-254.5,-415,481,5701,2448,-2453,0,1333.99,5736.3
5140,1173.91,-1192.82,-254.2,-280,1324,10929,2459,-2463,0,1339.71,11012.5
5160,1178.96,-1197.96,-251.7,2729,-2232,6776,2469,-2473,0,1345.15,7638.3
5180,1184.0,-1203.07,-253.6,-479,4282,16969,2479,-2484,0,1350.87,17507.5
5200,1189.07,-1208.22,-255.6,-519,5602,8304,2489,-2493,0,1356.04,10030.4
5220,1194.15,-1213.39,-254.2,1115,-831,7672,2499,-2503,0,1361.48,7797.0
5240,1199.22,-1218.54,-256.3,110,4759,14552,2509,-2513,0,1366.92,15310.8
5260,1204.32,-1223.73,-256.9,-637,3590,9723,2519,-2525,0,1372.91,10384.2
5280,1209.42,-1228.91,-256.9,1274,-1986,6079,2529,-2536,0,1378.63,6520.9
5300,1214.52,-1234.09,-256.8,2065,3171,8572,2540,-2547,0,1384.62,9370.1
5320,1219.63,-1239.28,-257.9,-1187,-38,12049,2550,-2559,0,1390.6,12107.4
5340,1224.73,-1244.46,-255.0,-1002,2857,10707,2561,-2570,0,1396.59,11126.8
5360,1229.77,-1249.59,-251.7,1504,1398,13544,2571,-2580,0,1402.04,13698.8
5380,1234.8,-1254.7,-251.9,-2353,5784,14184,2582,-2591,0,1408.02,15497.6
5400,1239.83,-1259.8,-252.7,399,-237,12032,2591,-2601,0,1413.2,12040.9
5420,1244.81,-1264.87,-249.0,499,3992,14318,2602,-2610,0,1418.64,14872.5
5440,1249.76,-1269.89,-250.1,380,1983,13110,2612,-2619,0,1423.81,13264.6
5460,1254.74,-1275.26,-252.2,229,610,6950,2623,-2628,0,1429.26,6980.5
5480,1259.74,-1280.04,-249.9,1359,1856,9811,2633,-2638,0,1434.7,10077.1
5500,1264.76,-1285.13,-252.6,-988,112,12231,2644,-2647,0,1440.14,12271.4
5520,1269.79,-1290.25,-252.4,1215,169,5068,2654,-2657,0,1445.59,5214.3
5540,1274.8,-1295.63,-250.8,1004,1980,13501,2664,-2667,0,1451.03,13682.3
5560,1280.05,-1300.68,-250.1,902,1753,10511,2674,-2678,0,1456.75,10694.3
5580,1285.06,-1305.76,-252.4,378,-1044,5754,2684,-2687,0,1461.92,5860.1
5600,1290.08,-1310.87,-252.6,-1313,2236,8367,2694,-2698,0,1467.63,8759.6
5620,1295.11,-1315.98,-253.8,-2040,5235,10482,2704,-2708,0,1473.08,11892.8
5640,1300.18,-1321.13,-254.8,-2090,3422,6344,2715,-2719,0,1479.07,7505.0
5660,1305.28,-1326.31,-255.5,-1400,5911,12056,2724,-2730,0,1484.51,13499.9
5680,1310.34,-1331.45,-253.6,-2955,1848,10012,2734,-2741,0,1490.23,10601.3
5700,1315.41,-1336.6,-254.4,-242,2131,10592,2744,-2751,0,1495.67,10807.0
5720,1320.47,-1341.74,-254.1,-107,1194,14793,2753,-2762,0,1501.11,14841.5
5740,1325.52,-1346.88,-254.0,-102,2807,10843,2764,-2773,0,1507.1,11200.9
5760,1330.57,-1352.01,-254.7,390,2023,12699,2774,-2783,0,1512.54,12865.0
5780,1335.67,-1357.18,-256.5,-675,-1145,7672,2784,-2793,0,1517.99,7786.3
5800,1340.79,-1362.39,-258.9,-462,1417,16016,2794,-2803,0,1523.43,16085.2
5820,1345.92,-1367.6,-257.9,-2398,962,11490,2805,-2812,0,1528.88,11776.9
5840,1351.07,-1372.84,-256.8,1823,2519,853,2816,-2822,0,1534.59,3224.3
5860,1356.19,-1378.04,-255.7,3162,2991,10986,2826,-2832,0,1540.04,11816.8
5880,1361.24,-1383.17,-253.9,613,509,8149,2836,-2842,0,1545.48,8187.9
5900,1366.31,-1388.32,-254.8,179,895,17084,2846,-2851,0,1550.65,17108.4
5920,1371.36,-1393.46,-251.6,101,4579,7698,2856,-2862,0,1556.37,8957.5
5940,1376.34,-1398.51,-249.2,-121,2933,9233,2865,-2871,0,1561.27,9688.4
5960,1381.32,-1403.87,-249.7,366,2579,7555,2874,-2883,0,1566.98,7991.4
5980,1386.58,-1408.92,-250.4,2620,838,11161,2885,-2893,0,1572.7,11495.0
6000,1391.55,-1413.97,-249.9,-100,2196,10807,2895,-2904,0,1578.41,11028.3
6020,1396.5,-1419.0,-249.0,-682,4661,10473,2905,-2915,0,1584.13,11483.6
6040,1401.47,-1424.05,-248.5,722,1475,7063,2915,-2925,0,1589.57,7251.4
6060,1406.42,-1429.07,-247.5,75,3434,7562,2926,-2936,0,1595.56,8305.5
6080,1411.33,-1434.07,-245.2,-1043,3468,6356,2936,-2946,0,1601.01,7315.3
6100,1416.25,-1439.07,-246.3,-325,5805,11598,2946,-2957,0,1606.72,12973.7
6120,1421.15,-1444.05,-245.1,2610,399,10158,2956,-2966,0,1611.89,10495.5
6140,1425.99,-1448.96,-243.3,1973,-1368,12981,2967,-2974,0,1617.06,13201.2
6160,1430.83,-1453.88,-243.1,-92,2462,10404,2977,-2983,0,1622.24,10691.7
6180,1435.72,-1458.85,-247.1,1409,-706,15409,2988,-2992,0,1627.68,15489.4
6200,1440.63,-1463.84,-246.5,814,3451,12204,2998,-3002,0,1633.12,12708.6
6220,1445.57,-1468.86,-249.2,-867,2821,9838,3008,-3011,0,1638.3,10271.1
6240,1450.51,-1473.88,-247.0,203,315,10915,3017,-3021,0,1643.47,10921.4
6260,1455.43,-1478.88,-247.9,-709,4466,15658,3027,-3031,0,1648.91,16297.9
6280,1460.36,-1483.89,-248.2,712,1367,12061,3037,-3041,0,1654.35,12159.1
6300,1465.31,-1488.92,-248.8,864,2555,13955,3047,-3052,0,1660.07,14213.3
6320,1470.25,-1493.94,-245.2,2046,-136,5455,3057,-3062,0,1665.51,5827.7
6340,1475.18,-1498.95,-248.1,565,3825,10702,3068,-3073,0,1671.5,11379.0
6360,1480.11,-1503.96,-248.1,968,3563,10924,3078,-3083,0,1676.95,11531.1
6380,1485.02,-1509.24,-245.6,205,-191,10867,3088,-3094,0,1682.66,10870.6
6400,1489.89,-1513.9,-244.2,1989,3566,10112,3097,-3105,0,1688.11,10905.3
6420,1495.08,-1519.17,-246.6,-787,6234,11741,3107,-3115,0,1693.55,13316.7
6440,1499.69,-1524.14,-244.2,1032,2567,7703,3117,-3126,0,1699.27,8184.8
6460,1504.85,-1529.09,-246.3,2977,-503,10179,3127,-3136,0,1704.71,10617.3
6480,1509.74,-1534.06,-245.7,-334,1192,5730,3138,-3146,0,1710.42,5862.2
6500,1514.66,-1539.06,-246.2,-1289,4699,12687,3148,-3156,0,1715.87,13590.5
6520,1519.58,-1544.06,-248.4,534,2553,3850,3159,-3166,0,1721.58,4650.3
6540,1524.55,-1549.11,-251.4,646,-1550,7626,3170,-3175,0,1727.03,7808.7
6560,1529.51,-1554.15,-249.8,-1886,3068,9107,3180,-3185,0,1732.47,9793.2
6580,1534.45,-1559.17,-246.4,715,3269,14624,3190,-3195,0,1737.92,15002.0
6600,1539.38,-1564.18,-247.4,589,866,7829,3200,-3205,0,1743.36,7898.7
6620,1544.38,-1569.26,-252.1,1252,-318,7815,3210,-3214,0,1748.53,7921.0
6640,1549.37,-1574.33,-252.3,793,-31,12266,3220,-3224,0,1753.97,12291.6
6660,1554.39,-1579.43,-253.4,1286,-342,7884,3230,-3234,0,1759.42,7995.5
6680,1559.45,-1584.57,-254.8,148,3604,6012,3241,-3245,0,1765.41,7011.1
6700,1564.54,-1589.75,-255.9,-479,3698,10439,3252,-3256,0,1771.39,11085.0
6720,1569.63,-1594.92,-255.2,-2182,1777,6659,3263,-3267,0,1777.38,7229.2
6740,1574.74,-1600.11,-256.5,300,531,7454,3274,-3278,0,1783.37,7478.9
6760,1579.83,-1605.28,-254.7,-436,3894,10411,3284,-3289,0,1789.09,11123.9
6780,1584.88,-1610.42,-253.6,1271,2569,3877,3294,-3300,0,1794.8,4821.4
6800,1589.92,-1615.54,-255.0,2006,1041,10053,3304,-3310,0,1800.25,10303.9
6820,1594.92,-1620.62,-249.0,16,2351,13795,3313,-3320,0,1805.42,13993.9
6840,1599.82,-1625.59,-247.1,1890,-455,10189,3323,-3330,0,1810.86,10372.8
6860,1604.75,-1630.9,-250.0,-149,4744,15842,3334,-3340,0,1816.58,16537.7
6880,1609.73,-1635.96,-250.3,-33,794,6957,3344,-3348,0,1821.48,7002.2
6900,1614.99,-1641.0,-248.8,608,2045,9288,3356,-3357,0,1827.19,9529.9
6920,1619.92,-1646.02,-248.8,139,2979,8713,3366,-3367,0,1832.64,9209.2
6940,1624.88,-1651.06,-250.1,-441,1079,11146,3376,-3377,0,1838.08,11206.8
6960,1629.85,-1656.11,-250.1,34,3374,18602,3386,-3387,0,1843.52,18905.5
6980,1634.82,-1661.16,-249.3,421,2006,6673,3396,-3397,0,1848.97,6980.7
7000,1639.81,-1666.23,-250.8,-654,1575,8653,3406,-3408,0,1854.68,8819.5
7020,1644.82,-1671.32,-251.6,1101,2577,9121,3416,-3418,0,1860.13,9541.8
7040,1649.85,-1676.44,-253.2,-1744,1753,8314,3427,-3428,0,1865.84,8673.9
7060,1654.92,-1681.59,-254.2,805,2074,11631,3437,-3439,0,1871.56,11841.9
7080,1660.01,-1686.75,-253.6,-1903,5671,6626,3447,-3450,0,1877.28,8926.7
7100,1665.08,-1691.91,-256.3,1511,1424,12813,3458,-3461,0,1883.26,12980.1
7120,1670.17,-1697.08,-254.8,-742,4397,9797,3467,-3472,0,1888.71,10764.1
7140,1675.23,-1702.22,-252.7,1063,814,8849,3477,-3482,0,1894.15,8949.7
7160,1680.27,-1707.34,-253.9,2504,2280,11137,3486,-3493,0,1899.6,11640.5
7180,1685.32,-1712.48,-253.8,982,1312,12579,3497,-3503,0,1905.31,12685.3
7200,1690.4,-1717.64,-257.7,842,-666,7500,3507,-3513,0,1910.75,7576.4
7220,1695.5,-1722.82,-256.5,-796,3731,8027,3518,-3523,0,1916.47,8887.4
7240,1700.63,-1728.03,-256.8,1319,-84,8039,3528,-3532,0,1921.64,8146.9
7260,1705.72,-1733.5,-253.1,4006,1755,4842,3539,-3541,0,1927.09,6524.8
7280,1710.71,-1738.57,-247.6,1084,2936,5009,3548,-3550,0,1931.99,5906.4
7300,1715.58,-1743.21,-243.1,700,1391,4560,3557,-3559,0,1936.88,4818.6
7320,1720.37,-1748.37,-238.9,-1983,2251,8866,3566,-3568,0,1941.78,9359.8
7340,1725.35,-1753.14,-232.9,-730,4500,15209,3575,-3577,0,1946.68,15877.5
7360,1729.9,-1757.77,-223.4,594,711,6657,3583,-3586,0,1951.31,6721.2
7380,1734.32,-1762.26,-221.4,1932,361,15758,3590,-3594,0,1955.39,15880.1
7400,1738.63,-1766.64,-212.3,-1145,6057,15166,3598,-3603,0,1960.02,16370.9
7420,1742.79,-1770.87,-206.4,2899,521,8591,3605,-3611,0,1964.1,9081.9
7440,1746.81,-1774.95,-199.1,1970,-1600,6129,3613,-3619,0,1968.46,6633.7
7460,1750.68,-1778.89,-189.6,-1656,3954,10853,3619,-3627,0,1972.27,11668.9
7480,1754.4,-1782.66,-183.5,-825,1616,13136,3626,-3634,0,1976.08,13260.7
7500,1757.97,-1786.29,-176.1,1677,-623,7330,3633,-3641,0,1979.89,7545.2
7520,1761.39,-1789.77,-168.4,307,1839,8168,3639,-3648,0,1983.43,8378.1
7540,1764.63,-1793.06,-158.0,-727,4193,10559,3646,-3654,0,1986.97,11384.3
7560,1767.7,-1796.18,-150.5,3110,-3753,3098,3651,-3659,0,1989.69,5775.4
7580,1770.61,-1799.14,-141.9,-723,6392,11125,3657,-3664,0,1992.68,12850.9
7600,1773.36,-1801.93,-134.3,565,-517,12219,3662,-3669,0,1995.4,12243.0
7620,1775.93,-1804.54,-126.0,1252,-151,7679,3667,-3674,0,1998.13,7781.9
7640,1778.35,-1807.0,-117.1,819,-644,8658,3672,-3677,0,2000.3,8720.5
7660,1780.61,-1809.3,-110.2,1523,-1193,6874,3677,-3681,0,2002.75,7141.1
7680,1782.74,-1811.46,-102.8,1051,3475,10057,3680,-3684,0,2004.39,10692.2
7700,1784.68,-1813.44,-93.8,1172,-3662,5940,3685,-3688,0,2006.84,7075.8
7720,1786.51,-1815.29,-89.6,-988,4737,13855,3689,-3690,0,2008.47,14675.7
7740,1788.22,-1817.03,-81.9,2015,-2105,7043,3693,-3692,0,2010.1,7622.0
7760,1789.8,-1818.73,-76.6,1302,-208,9797,3696,-3695,0,2011.74,9885.3
7780,1791.29,-1820.23,-72.9,-308,1336,10480,3699,-3697,0,2013.1,10569.3
7800,1792.76,-1821.64,-66.9,520,-472,8995,3701,-3699,0,2014.19,9022.4
7820,1794.02,-1822.92,-59.8,402,461,10585,3705,-3701,0,2015.82,10602.7
7840,1795.16,-1824.08,-55.1,776,1281,9678,3708,-3703,0,2017.18,9793.2
7860,1796.19,-1825.13,-48.8,-17,-462,10986,3710,-3704,0,2018.0,10995.7
7880,1797.12,-1826.07,-44.5,1037,1063,9926,3711,-3706,0,2018.81,10036.5
7900,1797.95,-1826.92,-38.5,80,279,11218,3713,-3707,0,2019.63,11221.8
7920,1798.63,-1827.61,-30.6,752,-206,9212,3714,-3708,0,2020.17,9244.9
7940,1799.2,-1828.18,-25.6,904,394,10038,3715,-3709,0,2020.72,10086.3
7960,1799.57,-1828.56,-11.9,1532,267,9740,3715,-3710,0,2020.99,9863.4
7980,1799.67,-1828.66,0.3,1461,-33,9484,3715,-3710,0,2020.99,9595.9
8000,1799.63,-1828.62,0.4,-768,-41,9799,3715,-3710,0,2020.99,9829.1
