ms,heading,rotZ,wz,ax,ay,az,left,right,stationary,enc_heading,acc_abs
1,0.0,0.0,0.0,23,45,9823,0,0,1,0.0,9823.1
20,0.0,0.0,0.0,-5,21,9816,0,0,0,0.0,9816.0
40,0.0,0.0,-0.7,4,83,9761,0,0,0,0.0,9761.4
60,0.01,0.0,0.3,127,229,9740,0,0,0,0.0,9743.5
80,0.0,0.0,-0.3,-95,-2,9730,0,0,0,0.0,9730.5
100,0.01,0.0,0.2,177,54,9778,0,0,0,0.0,9779.8
120,0.0,0.0,-0.2,-116,119,9816,0,0,0,0.0,9817.4
140,0.01,-0.01,0.1,179,11,9790,0,0,0,0.0,9791.6
160,0.0,0.0,-0.2,-145,4,9819,0,0,0,0.0,9820.1
180,0.01,-0.01,0.0,125,102,9811,0,0,0,0.0,9812.3
200,0.01,-0.01,-0.2,-104,-62,9878,0,0,0,0.0,9878.7
220,0.03,-0.03,-2.3,-758,38,8796,0,0,0,0.0,8828.7
240,0.2,-0.2,-17.0,-1751,-400,10456,-1,-1,0,0.0,10609.1
260,0.78,-0.79,-38.3,-505,294,9983,3,-3,0,1.63,10000.1
280,1.68,-1.71,-50.0,-1424,442,10487,6,-6,0,3.27,10592.5
300,2.77,-2.81,-59.7,-597,138,7375,9,-9,0,4.9,7400.4
320,4.12,-4.19,-76.3,-1576,296,10225,13,-14,0,7.35,10350.0
340,5.85,-5.94,-95.8,-2178,1082,9948,18,-19,0,10.07,10241.0
360,7.91,-8.04,-111.0,-1216,921,10604,23,-24,0,12.79,10713.2
380,10.23,-10.39,-121.9,-3050,2224,12618,29,-30,0,16.06,13170.5
400,12.75,-12.95,-130.4,27,-177,9243,34,-37,0,19.33,9244.7
420,15.43,-15.84,-139.6,-21,-438,7440,41,-43,0,22.86,7452.9
440,18.44,-18.73,-145.2,-711,-953,6069,47,-49,0,26.13,6184.4
460,21.42,-21.77,-155.0,-931,1899,8567,53,-56,0,29.67,8824.2
480,24.54,-24.93,-160.6,-1886,1925,8505,60,-63,0,33.48,8921.8
500,27.79,-28.23,-166.3,-2846,1465,10072,67,-70,0,37.29,10568.4
520,31.14,-31.64,-171.0,-2526,4237,11646,74,-76,0,40.83,12647.6
540,34.58,-35.14,-175.0,-709,-263,10282,81,-86,0,45.46,10309.8
560,38.15,-38.76,-184.6,-156,-429,9525,90,-92,0,49.54,9535.9
580,41.83,-42.5,-187.5,-1912,694,12527,97,-100,0,53.62,12691.1
600,45.58,-46.31,-187.8,-1979,1084,9916,105,-107,0,57.7,10169.5
620,49.38,-50.17,-193.0,1932,-4072,8209,112,-116,0,62.06,9364.9
640,53.28,-54.13,-197.5,243,-797,9912,121,-125,0,66.96,9947.0
660,57.25,-58.17,-202.0,769,176,10026,130,-135,0,72.13,10057.0
680,61.3,-62.29,-205.9,-348,3664,11500,138,-144,0,76.76,12074.6
700,65.42,-66.47,-209.1,494,399,12269,147,-153,0,81.66,12285.4
720,69.62,-70.74,-212.4,1527,220,10709,156,-163,0,86.83,10819.6
740,73.9,-75.08,-217.6,-929,1920,8992,165,-173,0,92.0,9241.5
760,78.26,-79.52,-222.0,-415,2026,14218,175,-183,0,97.44,14367.6
780,82.71,-84.03,-226.0,-242,2442,15985,185,-193,0,102.89,16172.3
800,87.26,-88.66,-232.1,1847,-685,5737,197,-202,0,108.6,6065.8
820,91.9,-93.38,-233.2,1582,603,7039,208,-212,0,114.32,7239.7
840,96.59,-98.14,-237.9,651,-1511,3172,218,-222,0,119.76,3573.3
860,101.35,-103.26,-240.9,-618,2409,8978,228,-232,0,125.21,9316.1
880,106.45,-108.16,-243.8,316,3868,16154,239,-242,0,130.92,16613.6
900,111.32,-113.11,-245.9,-1924,4203,7258,249,-253,0,136.64,8605.0
920,116.25,-118.12,-248.6,1802,-347,9845,260,-264,0,142.63,10014.6
940,121.2,-123.15,-248.3,470,2363,8703,272,-275,0,148.89,9030.3
960,126.15,-128.18,-249.0,-1062,1999,6989,284,-286,0,155.15,7346.4
980,131.14,-133.25,-251.9,-1040,-850,11068,294,-297,0,160.86,11149.2
1000,136.16,-138.35,-252.1,672,711,12020,304,-308,0,166.58,12059.7
1020,141.18,-143.45,-253.4,-690,4716,11617,315,-320,0,172.84,12556.7
1040,146.25,-148.6,-256.1,-476,1638,16088,325,-331,0,178.55,16178.2
1060,151.33,-153.76,-254.7,125,2593,6186,335,-342,0,184.27,6708.6
1080,156.4,-158.92,-256.4,-784,1901,12885,346,-355,0,190.8,13048.1
1100,161.48,-164.08,-255.9,2115,1178,10743,358,-366,0,197.06,11012.4
1120,166.52,-169.2,-251.8,-782,2047,14605,369,-377,0,203.05,14768.5
1140,171.53,-174.29,-251.5,1473,895,10810,379,-388,0,208.77,10946.5
1160,176.54,-179.38,-253.6,1008,2409,12142,390,-398,0,214.48,12419.6
1180,181.57,-184.49,-254.4,1132,871,7972,400,-408,0,219.93,8098.9
1200,186.61,-189.61,-254.2,-858,3559,13778,410,-419,0,225.64,14256.1
1220,191.65,-194.74,-254.5,-1476,3875,10385,421,-429,0,231.36,11182.2
1240,196.7,-199.87,-253.3,-633,-3152,8892,432,-439,0,237.08,9455.3
1260,201.77,-205.02,-254.8,-1564,3156,9147,443,-449,0,242.79,9801.7
1280,206.88,-210.21,-257.1,973,220,11736,455,-460,0,249.05,11778.3
1300,212.0,-215.72,-256.2,1129,1894,10124,466,-470,0,254.77,10361.3
1320,217.42,-220.92,-256.7,203,2687,10060,476,-482,0,260.76,10414.6
1340,222.52,-226.11,-255.3,2423,2711,11170,486,-493,0,266.47,11746.9
1360,227.65,-231.31,-259.1,1800,-694,11220,497,-505,0,272.73,11384.6
1380,232.76,-236.51,-255.0,-1372,5405,4724,508,-516,0,278.72,7308.4
1400,237.85,-241.68,-254.4,1008,3829,8011,518,-528,0,284.71,8936.1
1420,242.93,-246.84,-254.1,421,3039,10158,528,-539,0,290.42,10611.2
1440,247.99,-251.98,-255.5,1876,267,11564,539,-550,0,296.41,11718.2
1460,253.05,-257.12,-255.0,-351,3307,8997,549,-560,0,301.86,9591.9
1480,258.11,-262.26,-254.3,-1649,3499,10893,561,-569,0,307.57,11559.4
1500,263.12,-267.36,-251.8,-616,-1562,4545,572,-579,0,313.29,4845.2
1520,268.14,-272.46,-251.1,1624,-1748,1173,582,-588,0,318.46,2658.7
1540,273.15,-277.54,-249.5,-2090,888,5236,592,-598,0,323.9,5707.2
1560,278.15,-282.63,-252.4,-370,3762,5952,603,-608,0,329.62,7050.9
1580,283.17,-287.73,-255.2,992,-2891,6752,613,-617,0,334.79,7411.6
1600,288.21,-292.85,-254.4,3364,-2819,10900,624,-627,0,340.51,11750.5
1620,293.28,-298.0,-253.6,383,5128,7932,635,-638,0,346.49,9453.0
1640,298.34,-303.14,-253.8,-152,957,12567,646,-648,0,352.21,12604.3
1660,303.4,-308.28,-253.1,-2012,5892,14237,656,-658,0,357.65,15538.9
1680,308.45,-313.41,-254.3,1286,-177,7789,666,-669,0,363.37,7896.4
1700,313.51,-318.56,-255.8,641,1836,7722,676,-679,0,368.81,7963.1
1720,318.6,-323.73,-255.0,-284,1499,7698,686,-690,0,374.53,7847.7
1740,323.64,-328.86,-251.3,-50,3010,8890,696,-701,0,380.25,9385.9
1760,328.64,-334.23,-252.6,-682,1784,12362,707,-713,0,386.51,12508.7
1780,333.9,-339.28,-250.2,1852,713,15667,718,-723,0,392.22,15792.2
1800,338.81,-344.26,-245.2,-446,3219,8873,728,-735,0,398.21,9449.4
1820,343.67,-349.2,-243.6,831,775,6208,738,-745,0,403.65,6311.1
1840,348.5,-354.12,-242.8,485,3726,9004,749,-756,0,409.64,9756.6
1860,353.33,-359.02,-241.0,-277,1463,8252,758,-765,0,414.54,8385.3
1880,358.14,-363.9,-243.4,892,711,9854,769,-775,0,420.26,9919.8
1900,362.98,-368.83,-246.5,98,1046,8371,779,-785,0,425.7,8436.7
1920,367.87,-373.79,-245.1,-2742,6879,15873,790,-795,0,431.42,17515.5
1940,372.72,-378.73,-243.0,-1400,351,3573,801,-807,0,437.68,3853.5
1960,377.62,-383.7,-246.9,-1735,9092,13955,812,-815,0,442.85,16745.6
1980,382.56,-388.72,-248.8,-7,390,9969,823,-825,0,448.56,9976.6
2000,387.51,-393.75,-249.0,-519,2744,9709,832,-836,0,454.01,10102.7
2020,392.48,-398.8,-251.1,-95,725,3666,844,-847,0,460.27,3738.2
2040,397.46,-403.86,-248.1,203,69,6117,854,-858,0,465.98,6120.8
2060,402.41,-408.89,-246.9,148,2864,15414,864,-869,0,471.7,15678.5
2080,407.34,-413.9,-247.2,-38,1681,7992,874,-881,0,477.69,8167.0
2100,412.28,-418.91,-246.9,-284,2553,6432,884,-892,0,483.4,6926.0
2120,417.2,-423.92,-246.5,127,1532,9661,895,-903,0,489.39,9782.5
2140,422.11,-428.9,-245.9,-1197,3975,11285,906,-913,0,495.11,12024.3
2160,427.01,-433.89,-246.7,551,4656,17107,917,-922,0,500.55,17737.9
2180,431.89,-438.84,-243.9,-2325,5226,10265,928,-932,0,506.27,11751.0
2200,436.77,-444.09,-245.6,-1310,4675,9343,938,-941,0,511.44,10529.2
2220,441.96,-449.08,-247.8,-476,-2845,7827,949,-951,0,517.16,8341.6
2240,446.88,-454.08,-245.8,-1111,1606,5897,959,-961,0,522.6,6211.9
2260,451.78,-459.06,-247.9,-242,3508,9341,969,-971,0,528.04,9980.9
2280,456.72,-464.08,-249.5,-2445,5772,11025,980,-981,0,533.76,12682.5
2300,461.69,-469.13,-249.5,-3007,3683,3409,991,-991,0,539.48,5850.5
2320,466.66,-474.17,-249.9,-1815,1927,7884,1003,-1002,0,545.74,8316.6
2340,471.64,-479.24,-248.4,-711,335,3440,1013,-1012,0,551.18,3528.6
2360,476.64,-484.31,-253.0,1269,993,17141,1023,-1023,0,556.9,17216.6
2380,481.66,-489.42,-252.8,-585,1676,6869,1033,-1035,0,562.88,7094.7
2400,486.71,-494.55,-254.7,1558,5396,17521,1044,-1046,0,568.87,18399.2
2420,491.76,-499.68,-255.7,2380,-572,11302,1054,-1057,0,574.59,11564.0
2440,496.78,-504.78,-251.6,-1145,2304,7970,1065,-1069,0,580.85,8375.0
2460,501.8,-509.88,-251.2,-457,3125,5226,1076,-1080,0,586.84,6106.2
2480,506.83,-514.99,-251.1,-540,2430,3497,1087,-1091,0,592.82,4292.5
2500,511.85,-520.09,-252.3,2136,2859,9496,1097,-1102,0,598.54,10144.5
2520,516.85,-525.18,-251.8,-723,1551,9140,1107,-1113,0,604.26,9298.8
2540,521.9,-530.31,-254.1,411,3705,13676,1117,-1123,0,609.7,14174.9
2560,526.96,-535.44,-253.5,-948,1817,9895,1128,-1133,0,615.42,10105.0
2580,532.03,-540.6,-256.1,2186,3920,9862,1138,-1144,0,621.13,10835.3
2600,537.13,-545.79,-257.3,1449,2962,8863,1149,-1154,0,626.85,9456.5
2620,542.23,-550.96,-256.6,-464,3123,8904,1160,-1165,0,632.84,9447.2
2640,547.33,-556.15,-257.9,-2154,6057,13377,1172,-1174,0,638.55,14841.5
2660,552.77,-561.67,-258.2,918,2169,12245,1182,-1184,0,644.0,12469.5
2680,557.87,-566.86,-256.2,-1798,3173,10599,1192,-1195,0,649.71,11208.9
2700,562.98,-572.04,-258.0,899,382,8159,1203,-1206,0,655.7,8217.3
2720,568.07,-577.22,-257.3,-1325,-2376,2924,1213,-1218,0,661.69,3993.8
2740,573.17,-582.4,-255.1,527,1738,9279,1223,-1229,0,667.4,9455.1
2760,578.24,-587.55,-253.8,51,2160,8266,1233,-1240,0,673.12,8543.7
2780,583.32,-592.71,-256.1,186,2160,12484,1243,-1252,0,679.11,12670.9
2800,588.4,-597.88,-254.5,-1009,3108,5797,1254,-1262,0,684.82,6654.5
2820,593.48,-603.04,-255.5,-1381,5592,8266,1265,-1273,0,690.81,10074.9
2840,598.54,-608.18,-254.6,-1635,26,4175,1276,-1282,0,696.26,4483.8
2860,603.58,-613.3,-251.8,1641,921,8168,1286,-1292,0,701.7,8382.0
2880,608.59,-618.39,-252.2,-929,2854,7108,1297,-1301,0,707.14,7715.7
2900,613.65,-623.54,-253.6,-1197,1736,4889,1307,-1310,0,712.31,5324.4
2920,618.78,-628.75,-260.2,802,2227,9083,1317,-1321,0,718.03,9386.4
2940,623.94,-633.99,-261.8,-66,1736,12319,1327,-1331,0,723.47,12440.9
2960,629.09,-639.22,-259.0,-2194,3875,12047,1338,-1341,0,729.19,12843.7
2980,634.21,-644.43,-256.9,-3135,344,1761,1349,-1351,0,734.91,3612.2
3000,639.32,-649.62,-253.7,-2334,5314,11106,1360,-1362,0,740.89,12531.1
3020,644.42,-654.8,-257.0,629,-2448,8909,1370,-1372,0,746.34,9260.6
3040,649.53,-659.99,-258.6,-339,2378,17415,1380,-1383,0,752.05,17579.9
3060,654.66,-665.21,-256.5,-81,1350,9374,1390,-1393,0,757.5,9471.1
3080,659.77,-670.4,-255.2,-1069,7822,13332,1400,-1404,0,763.21,15494.1
3100,664.85,-675.86,-254.3,-796,6294,14239,1410,-1414,0,768.66,15588.4
3120,670.19,-680.98,-253.7,-1666,3779,11321,1420,-1426,0,774.65,12050.8
3140,675.2,-686.07,-251.5,-855,2495,10557,1430,-1436,0,780.09,10881.5
3160,680.16,-691.11,-247.3,970,4483,11354,1441,-1447,0,786.08,12245.5
3180,685.05,-696.08,-243.0,3558,-311,11285,1451,-1457,0,791.52,11836.7
3200,689.89,-701.01,-242.6,-57,809,6425,1461,-1468,0,797.24,6476.0
3220,694.73,-705.92,-243.5,117,2009,9924,1471,-1478,0,802.68,10126.0
3240,699.54,-710.81,-241.7,-1900,4404,9217,1481,-1488,0,808.12,10390.3
3260,704.38,-715.72,-244.4,203,1640,15471,1491,-1497,0,813.3,15559.0
3280,709.23,-720.65,-243.7,-1325,3183,6969,1502,-1507,0,819.01,7775.2
3300,714.07,-725.57,-244.1,-1713,2814,13721,1512,-1516,0,824.18,14110.9
3320,718.91,-730.48,-242.8,-1524,1892,8751,1522,-1528,0,830.17,9082.0
3340,723.8,-735.45,-248.9,-443,639,15483,1534,-1536,0,835.61,15502.5
3360,728.73,-740.47,-248.0,3330,-3260,141,1544,-1546,0,841.06,4662.2
3380,733.64,-745.46,-247.4,-192,3681,11875,1554,-1557,0,846.77,12433.9
3400,738.56,-750.46,-248.0,748,-987,5076,1564,-1568,0,852.49,5224.9
3420,743.52,-755.49,-248.8,-3061,5501,11251,1575,-1579,0,858.48,12892.5
3440,748.47,-760.52,-247.9,-1708,1283,11810,1585,-1590,0,864.19,12001.6
3460,753.4,-765.53,-247.3,-3478,5626,14860,1594,-1601,0,869.64,16265.5
3480,758.32,-770.54,-248.6,219,3504,12792,1605,-1612,0,875.63,13265.0
3500,763.24,-775.53,-246.7,-803,4040,13243,1615,-1623,0,881.34,13868.8
3520,768.13,-780.5,-245.4,122,-1236,5422,1626,-1633,0,887.06,5562.4
3540,773.02,-785.77,-247.4,-1372,4395,9296,1637,-1643,0,892.77,10373.7
3560,778.18,-790.71,-244.0,-1912,1868,10260,1648,-1652,0,898.22,10602.5
3580,783.0,-795.61,-242.3,719,521,9993,1658,-1662,0,903.66,10032.4
3600,787.84,-800.53,-244.2,-1192,3367,4746,1668,-1671,0,908.83,5939.9
3620,792.72,-805.49,-246.4,42,3417,12257,1679,-1681,0,914.55,12724.5
3640,797.62,-810.46,-248.1,914,519,12897,1689,-1691,0,919.99,12939.8
3660,802.54,-815.46,-246.6,890,953,1558,1700,-1701,0,925.71,2031.7
3680,807.46,-820.47,-248.1,-1881,28,5608,1711,-1711,0,931.42,5915.1
3700,812.39,-825.47,-246.9,-3796,4352,7769,1722,-1721,0,937.14,9680.2
3720,817.33,-830.49,-249.4,-597,2989,15175,1732,-1732,0,942.86,15478.1
3740,822.29,-835.53,-247.6,-2201,2215,5997,1742,-1742,0,948.3,6761.3
3760,827.27,-840.59,-249.4,-1685,5456,4323,1752,-1753,0,954.02,7162.1
3780,832.29,-845.7,-252.9,-1957,1156,10681,1762,-1763,0,959.46,10920.2
3800,837.33,-850.81,-251.1,-2156,2435,6332,1773,-1774,0,965.45,7118.4
3820,842.34,-855.91,-252.2,1049,-766,10127,1784,-1786,0,971.71,10210.0
3840,847.36,-861.01,-252.4,-28,3571,12594,1794,-1797,0,977.42,13090.5
3860,852.37,-866.1,-254.1,1511,275,16384,1805,-1809,0,983.68,16455.8
3880,857.36,-871.17,-252.1,2496,1089,13900,1815,-1820,0,989.4,14164.2
3900,862.35,-876.24,-251.0,-261,2692,7375,1825,-1830,0,994.84,7855.3
3920,867.35,-881.32,-251.1,-332,-326,8815,1835,-1840,0,1000.29,8827.3
3940,872.35,-886.4,-250.6,-528,2088,12799,1845,-1850,0,1005.73,12978.9
3960,877.36,-891.5,-253.2,-1308,5005,4228,1856,-1861,0,1011.72,6681.1
3980,882.43,-896.64,-255.6,852,495,13907,1867,-1871,0,1017.44,13941.9
4000,887.52,-902.12,-256.9,359,2011,9174,1877,-1881,0,1022.88,9398.7
4020,892.94,-907.32,-257.2,-261,873,9453,1889,-1890,0,1028.6,9496.8
4040,898.08,-912.55,-259.3,1271,1384,8510,1900,-1901,0,1034.58,8715.0
4060,903.24,-917.79,-261.1,854,-498,10365,1910,-1911,0,1040.03,10412.0
4080,908.39,-923.03,-258.7,-1363,3528,10798,1921,-1923,0,1046.29,11441.2
4100,913.53,-928.25,-258.9,916,1774,11388,1931,-1935,0,1052.28,11561.7
4120,918.64,-933.44,-255.3,-704,675,5909,1941,-1946,0,1057.99,5988.9
4140,923.71,-938.59,-254.8,-692,3992,6709,1951,-1958,0,1063.98,7837.4
4160,928.77,-943.73,-254.8,352,1973,12202,1961,-1969,0,1069.7,12365.5
4180,933.85,-948.89,-255.0,-322,1391,4715,1971,-1980,0,1075.41,4926.4
4200,938.92,-954.04,-254.7,-1007,1336,11698,1981,-1992,0,1081.4,11817.0
4220,943.98,-959.18,-253.8,-1519,4912,9253,1992,-2001,0,1086.84,10585.5
4240,949.04,-964.32,-253.9,1549,148,10602,2003,-2010,0,1092.29,10715.6
4260,954.06,-969.43,-252.0,115,3008,8928,2014,-2020,0,1098.0,9421.8
4280,959.06,-974.51,-251.3,-218,-941,3822,2024,-2029,0,1103.18,3942.2
4300,964.07,-979.6,-252.0,724,-2038,6840,2035,-2038,0,1108.62,7173.8
4320,969.09,-984.7,-252.0,290,4668,7206,2045,-2048,0,1114.06,8590.7
4340,974.13,-989.82,-252.9,769,1860,12247,2055,-2058,0,1119.51,12411.3
4360,979.2,-994.97,-255.8,-1000,3286,8579,2065,-2068,0,1124.95,9241.1
4380,984.3,-1000.15,-255.2,153,3681,9539,2077,-2078,0,1130.94,10225.7
4400,989.39,-1005.32,-254.3,-1310,15169,16219,2088,-2089,0,1136.93,22245.7
4420,994.49,-1010.51,-252.9,2302,-6244,12305,2097,-2099,0,1142.1,13989.3
4440,999.56,-1015.96,-256.0,-4471,-1360,15008,2107,-2109,0,1147.54,15718.8
4460,1004.91,-1021.1,-253.8,487,6282,12493,2117,-2120,0,1153.26,13992.0
4480,1009.97,-1026.24,-255.6,975,-2762,14306,2127,-2131,0,1158.97,14602.8
4500,1015.0,-1031.34,-251.7,2589,2780,15801,2137,-2141,0,1164.42,16251.2
4520,1019.96,-1036.38,-247.6,411,-917,6396,2147,-2152,0,1170.13,6474.5
4540,1024.88,-1041.39,-246.2,-773,5120,11287,2158,-2163,0,1176.12,12418.1
4560,1029.77,-1046.36,-244.0,-1919,5540,13255,2168,-2174,0,1181.84,14493.8
4580,1034.6,-1051.27,-240.5,1371,-148,13917,2178,-2184,0,1187.28,13985.2
4600,1039.4,-1056.14,-241.2,1345,2933,9183,2188,-2194,0,1192.72,9733.4
4620,1044.21,-1061.03,-241.4,-1071,4500,8240,2198,-2204,0,1198.17,9449.6
4640,1049.02,-1065.92,-242.4,-1256,3154,16021,2208,-2213,0,1203.34,16376.7
4660,1053.84,-1070.82,-244.6,1935,-1911,5219,2218,-2224,0,1209.06,5885.1
4680,1058.69,-1075.75,-244.2,840,3439,9126,2229,-2234,0,1214.77,9788.6
4700,1063.54,-1080.67,-243.6,-398,3391,8011,2239,-2244,0,1220.22,8708.2
4720,1068.41,-1085.62,-246.4,452,1853,14132,2251,-2253,0,1225.93,14260.1
4740,1073.33,-1090.62,-246.1,-1443,3214,7437,2261,-2263,0,1231.38,8229.3
4760,1078.27,-1095.63,-251.5,1629,-2261,13601,2272,-2272,0,1236.82,13883.6
4780,1083.23,-1100.67,-249.5,11,3604,10838,2282,-2284,0,1242.81,11421.5
4800,1088.21,-1105.74,-252.3,-704,1154,12866,2293,-2296,0,1249.07,12936.8
4820,1093.21,-1110.82,-249.5,-12,73,6160,2303,-2307,0,1254.78,6160.4
4840,1098.2,-1115.89,-251.3,-121,3575,15008,2312,-2318,0,1260.23,15428.4
4860,1103.21,-1120.98,-252.0,1188,957,5873,2323,-2329,0,1266.22,6067.9
4880,1108.22,-1126.07,-251.3,911,3029,12653,2333,-2340,0,1271.93,13042.4
4900,1113.22,-1131.45,-250.8,1027,591,10194,2344,-2351,0,1277.92,10262.6
4920,1118.52,-1136.54,-252.3,985,1065,8395,2354,-2361,0,1283.36,8519.4
4940,1123.51,-1141.61,-250.3,1485,584,12393,2366,-2370,0,1289.08,12495.3
4960,1128.43,-1146.6,-248.2,2240,1566,12097,2377,-2379,0,1294.52,12401.9
4980,1133.33,-1151.59,-246.2,321,279,7700,2387,-2389,0,1299.97,7711.7
5000,1138.23,-1156.57,-246.3,-562,2828,5899,2397,-2398,0,1305.14,6565.9
5020,1143.14,-1161.56,-247.1,193,1832,10129,2407,-2408,0,1310.58,10295.2
5040,1148.07,-1166.56,-247.3,-799,1956,5656,2417,-2417,0,1315.75,6037.8
5060,1152.99,-1171.57,-247.7,402,3693,9128,2428,-2427,0,1321.47,9855.0
5080,1157.9,-1176.56,-247.8,1442,414,12859,2439,-2438,0,1327.46,12946.2
5100,1162.82,-1181.55,-247.6,328,1597,6626,2450,-2448,0,1333.17,6823.6
5120,1167.75,-1186.56,-248.4,591,1578,10203,2460,-2458,0,1338.62,10341.2
5140,1172.67,-1191.56,-246.4,-4481,4287,6339,2470,-2468,0,1344.06,8868.0
5160,1177.62,-1196.59,-249.6,-1647,3571,11486,2480,-2479,0,1349.78,12140.5
5180,1182.58,-1201.63,-249.0,-1197,2124,11041,2490,-2490,0,1355.49,11307.0
5200,1187.53,-1206.65,-247.6,-1479,1003,5059,2501,-2501,0,1361.48,5365.3
5220,1192.48,-1211.69,-248.6,-38,3096,11423,2512,-2512,0,1367.47,11835.2
5240,1197.44,-1216.72,-249.4,-1867,5132,7406,2522,-2524,0,1373.46,9201.7
5260,1202.36,-1221.73,-245.3,-652,2442,6886,2533,-2534,0,1379.17,7335.2
5280,1207.24,-1226.69,-245.1,-614,1551,6566,2543,-2545,0,1384.89,6774.6
5300,1212.13,-1231.66,-246.3,-791,3628,5245,2553,-2556,0,1390.6,6426.4
5320,1217.05,-1236.66,-247.8,539,-76,6200,2563,-2566,0,1396.05,6223.8
5340,1221.99,-1241.97,-249.0,-64,2581,9231,2573,-2576,0,1401.49,9585.3
5360,1227.24,-1247.01,-250.9,1181,493,9649,2584,-2586,0,1407.21,9733.5
5380,1232.22,-1252.07,-250.8,-379,2100,10361,2595,-2595,0,1412.65,10578.5
5400,1237.24,-1257.17,-252.7,-690,656,7249,2606,-2608,0,1419.18,7311.3
5420,1242.31,-1262.32,-256.5,2034,440,7285,2617,-2616,0,1424.36,7576.4
5440,1247.4,-1267.49,-255.8,719,176,5324,2627,-2626,0,1429.8,5375.2
5460,1252.48,-1272.66,-255.6,392,1398,8125,2638,-2637,0,1435.79,8253.7
5480,1257.59,-1277.85,-258.8,1352,1453,12730,2648,-2649,0,1441.78,12883.8
5500,1262.72,-1283.06,-258.4,-915,2304,15854,2659,-2660,0,1447.76,16046.6
5520,1267.83,-1288.25,-255.6,-929,550,4830,2669,-2671,0,1453.48,4949.2
5540,1272.93,-1293.44,-256.0,-1663,5520,10640,2679,-2683,0,1459.47,12101.5
5560,1278.03,-1298.62,-257.0,-988,3472,11118,2690,-2694,0,1465.46,11689.3
5580,1283.13,-1303.8,-256.5,0,2359,10616,2699,-2705,0,1470.9,10874.9
5600,1288.23,-1308.99,-257.3,-1069,1714,7681,2711,-2716,0,1477.16,7942.2
5620,1293.37,-1314.2,-258.2,-1486,2387,9967,2721,-2725,0,1482.33,10356.0
5640,1298.48,-1319.39,-255.6,148,335,8338,2732,-2735,0,1488.05,8346.0
5660,1303.57,-1324.57,-256.3,-1325,5034,13516,2743,-2744,0,1493.49,14483.8
5680,1308.69,-1329.77,-257.0,-313,869,12918,2754,-2754,0,1499.21,12951.0
5700,1313.81,-1334.97,-255.6,-391,-321,6695,2764,-2763,0,1504.38,6714.1
5720,1318.89,-1340.14,-255.2,1577,2498,7712,2774,-2774,0,1510.1,8258.4
5740,1323.98,-1345.31,-254.3,3954,-2086,12219,2784,-2784,0,1515.54,13011.1
5760,1329.07,-1350.48,-255.6,1226,-1933,249,2795,-2794,0,1521.25,2302.5
5780,1334.17,-1355.96,-256.2,2537,3135,8524,2805,-2805,0,1526.97,9429.9
5800,1339.58,-1361.16,-260.3,-720,4157,5489,2815,-2815,0,1532.41,6923.0
5820,1344.72,-1366.38,-258.3,-1692,2121,12682,2825,-2825,0,1537.86,12969.0
5840,1349.85,-1371.59,-258.7,1615,897,9102,2836,-2836,0,1543.85,9287.6
5860,1354.98,-1376.81,-255.4,1267,7410,12720,2845,-2847,0,1549.29,14775.4
5880,1360.07,-1381.98,-251.1,1084,-235,3194,2856,-2858,0,1555.28,3381.1
5900,1365.12,-1387.11,-254.3,3354,-488,9393,2866,-2869,0,1560.99,9985.8
5920,1370.15,-1392.22,-251.8,-765,440,8056,2877,-2880,0,1566.98,8104.2
5940,1375.14,-1397.29,-248.6,-128,2387,13291,2887,-2891,0,1572.7,13504.3
5960,1380.05,-1402.28,-245.9,2385,1103,12489,2897,-2901,0,1578.14,12762.4
5980,1384.95,-1407.26,-246.0,-398,689,10342,2907,-2911,0,1583.59,10372.6
6000,1389.84,-1412.23,-245.2,-1175,1738,9704,2916,-2921,0,1588.76,9928.2
6020,1394.7,-1417.17,-243.7,-1436,4047,13566,2926,-2930,0,1593.93,14229.4
6040,1399.58,-1422.12,-244.9,1196,-508,10198,2936,-2941,0,1599.64,10280.5
6060,1404.47,-1427.09,-244.6,-197,1815,8314,2947,-2950,0,1605.09,8512.1
6080,1409.34,-1432.04,-246.0,-1078,-946,9890,2958,-2960,0,1610.8,9993.5
6100,1414.21,-1436.99,-246.9,1333,1963,14344,2969,-2969,0,1616.25,14538.9
6120,1419.12,-1441.98,-248.5,-246,1805,10728,2979,-2979,0,1621.69,10881.6
6140,1424.05,-1446.99,-248.6,-998,-354,6210,2989,-2989,0,1627.14,6299.6
6160,1429.0,-1452.02,-250.2,-3223,4910,20859,2999,-3000,0,1632.85,21670.1
6180,1433.94,-1457.04,-249.0,2068,1781,7631,3010,-3011,0,1638.84,8104.4
6200,1438.89,-1462.07,-247.6,-559,-1823,8164,3021,-3022,0,1644.83,8383.7
6220,1443.82,-1467.08,-248.0,-1900,541,6697,3030,-3033,0,1650.27,6982.3
6240,1448.78,-1472.41,-249.8,-1294,780,5400,3040,-3044,0,1655.99,5607.4
6260,1454.06,-1477.48,-250.8,-536,2030,6059,3050,-3056,0,1661.98,6412.5
6280,1459.06,-1482.57,-251.5,556,-611,7127,3060,-3066,0,1667.42,7174.7
6300,1464.09,-1487.67,-252.4,717,1187,5216,3071,-3076,0,1673.14,5397.2
6320,1469.12,-1492.78,-251.5,1117,955,10731,3082,-3086,0,1678.85,10831.2
6340,1474.1,-1497.85,-249.7,1224,-455,11483,3093,-3095,0,1684.29,11557.0
6360,1479.08,-1502.91,-251.4,-1256,1238,8636,3103,-3104,0,1689.47,8814.2
6380,1484.08,-1507.99,-250.4,-884,2864,12018,3114,-3114,0,1695.18,12386.1
6400,1489.06,-1513.05,-248.7,-1498,5808,10112,3124,-3124,0,1700.63,11757.1
6420,1494.02,-1518.08,-248.8,-1270,2474,10802,3134,-3133,0,1705.8,11154.2
6440,1498.98,-1523.12,-251.3,2769,2737,13141,3145,-3143,0,1711.51,13705.6
6460,1503.93,-1528.16,-248.4,534,3415,15801,3155,-3154,0,1717.23,16174.6
6480,1508.87,-1533.17,-247.4,1672,1506,8039,3166,-3163,0,1722.67,8348.0
6500,1513.79,-1538.18,-249.2,3172,-2493,12040,3176,-3174,0,1728.39,12698.0
6520,1518.71,-1543.18,-248.3,-334,701,12572,3186,-3184,0,1733.83,12596.0
6540,1523.65,-1548.19,-249.3,191,1987,8316,3196,-3195,0,1739.55,8552.2
6560,1528.6,-1553.22,-249.0,-161,2807,11865,3206,-3206,0,1745.26,12193.6
6580,1533.54,-1558.24,-247.5,2553,3417,12441,3216,-3216,0,1750.71,13151.9
6600,1538.44,-1563.23,-245.3,-628,2629,12400,3227,-3227,0,1756.7,12691.2
6620,1543.35,-1568.21,-246.5,409,2658,15825,3237,-3238,0,1762.41,16051.9
6640,1548.26,-1573.2,-246.6,-502,3096,12424,3248,-3249,0,1768.4,12813.8
6660,1553.14,-1578.16,-243.5,-1713,3863,6814,3258,-3259,0,1773.84,8018.0
6680,1558.0,-1583.39,-245.0,-1104,2557,11323,3268,-3269,0,1779.29,11660.5
6700,1563.17,-1588.35,-246.5,-164,4265,13793,3277,-3280,0,1784.73,14438.3
6720,1568.08,-1593.34,-246.7,-204,1400,12467,3288,-3289,0,1790.18,12547.0
6740,1572.99,-1598.33,-247.4,-1064,3932,10124,3298,-3300,0,1795.89,10912.7
6760,1577.94,-1603.36,-248.3,-896,2727,9219,3309,-3310,0,1801.61,9655.5
6780,1582.9,-1608.4,-249.6,-1315,2476,8940,3320,-3319,0,1807.05,9369.3
6800,1587.9,-1613.48,-250.6,-1602,2385,7414,3332,-3329,0,1813.04,7951.2
6820,1592.94,-1618.6,-256.2,-1514,1127,11438,3342,-3339,0,1818.48,11592.7
6840,1598.0,-1623.74,-253.2,-505,6907,16928,3352,-3349,0,1823.93,18289.9
6860,1603.05,-1628.88,-255.1,-732,3578,13110,3362,-3361,0,1829.92,13609.2
6880,1608.14,-1634.05,-255.6,-19,1594,9358,3373,-3372,0,1835.9,9492.8
6900,1613.23,-1639.22,-255.6,447,917,12133,3383,-3384,0,1841.89,12175.8
6920,1618.31,-1644.38,-254.1,-1206,294,5699,3392,-3395,0,1847.34,5832.6
6940,1623.39,-1649.55,-257.3,726,2505,14877,3403,-3406,0,1853.32,15103.9
6960,1628.49,-1654.72,-254.6,-1552,3810,8601,3412,-3418,0,1859.04,9534.3
6980,1633.56,-1659.88,-255.2,-801,3954,10129,3423,-3429,0,1865.03,10902.9
7000,1638.64,-1665.04,-255.2,257,2807,15022,3434,-3439,0,1870.74,15284.2
7020,1643.72,-1670.2,-255.0,-121,4826,13224,3445,-3449,0,1876.46,14077.6
7040,1648.79,-1675.35,-256.1,1513,2332,16520,3456,-3459,0,1882.18,16752.2
7060,1653.88,-1680.53,-256.1,-486,2919,13527,3467,-3468,0,1887.62,13846.9
7080,1659.01,-1685.74,-258.6,70,2093,5324,3477,-3478,0,1893.06,5721.1
7100,1664.16,-1690.96,-258.5,-403,3226,8271,3487,-3487,0,1898.23,8887.0
7120,1669.3,-1696.19,-257.3,3184,938,6931,3497,-3497,0,1903.68,7684.8
7140,1674.4,-1701.68,-256.8,-261,174,13905,3507,-3507,0,1909.12,13908.5
7160,1679.77,-1706.83,-255.0,-337,1757,7863,3519,-3518,0,1915.38,8064.0
7180,1684.84,-1711.98,-255.8,-1173,0,3922,3529,-3528,0,1920.83,4093.7
7200,1689.91,-1717.13,-256.3,-770,2670,14005,3539,-3538,0,1926.27,14278.0
7220,1695.0,-1722.31,-258.4,-1886,646,10155,3549,-3549,0,1931.99,10348.8
7240,1700.13,-1727.51,-254.8,-1235,5714,6735,3558,-3559,0,1937.16,8918.3
7260,1705.19,-1732.66,-251.2,-1441,5180,15586,3568,-3569,0,1942.6,16487.3
7280,1710.15,-1737.7,-245.2,-2289,7403,10408,3577,-3579,0,1947.77,12975.8
7300,1715.02,-1742.65,-242.1,-10,-338,10879,3586,-3590,0,1953.22,10884.3
7320,1719.81,-1747.51,-238.6,1591,2617,10268,3596,-3600,0,1958.66,10715.0
7340,1724.51,-1752.29,-232.3,1790,1745,5804,3605,-3609,0,1963.56,6319.5
7360,1729.08,-1756.93,-226.6,2506,-2666,1472,3613,-3617,0,1967.91,3943.9
7380,1733.49,-1761.41,-219.5,523,-208,9131,3621,-3626,0,1972.54,9148.3
7400,1737.78,-1765.78,-213.5,-251,617,5840,3629,-3633,0,1976.62,5877.9
7420,1741.99,-1770.05,-207.0,1,246,5458,3635,-3641,0,1980.43,5463.5
7440,1746.04,-1774.17,-201.4,1918,564,14244,3643,-3648,0,1984.52,14383.6
7460,1749.96,-1778.15,-193.9,774,2730,15185,3650,-3655,0,1988.33,15447.9
7480,1753.73,-1781.98,-184.7,-701,4043,10685,3657,-3662,0,1992.14,11445.8
7500,1757.36,-1785.67,-178.5,262,3365,9241,3663,-3668,0,1995.4,9838.1
7520,1760.85,-1789.21,-171.2,2274,200,10363,3670,-3674,0,1998.94,10611.4
7540,1764.18,-1792.6,-163.6,2203,-421,9503,3676,-3680,0,2002.21,9764.1
7560,1767.34,-1795.99,-154.0,-896,3125,11091,3682,-3687,0,2005.75,11557.6
7580,1770.5,-1799.02,-145.5,1672,718,10566,3688,-3690,0,2008.2,10721.5
7600,1773.31,-1801.87,-137.7,1876,246,9842,3693,-3695,0,2010.92,10022.2
7620,1775.96,-1804.57,-129.7,1250,1477,9981,3698,-3701,0,2013.91,10166.8
7640,1778.45,-1807.09,-119.9,582,1745,10050,3704,-3705,0,2016.64,10217.0
7660,1780.78,-1809.46,-115.0,470,1242,11299,3708,-3709,0,2018.81,11376.8
7680,1782.99,-1811.71,-107.0,1155,-433,9592,3712,-3712,0,2020.72,9671.0
7700,1785.02,-1813.77,-99.0,184,495,9804,3716,-3717,0,2023.17,9818.2
7720,1786.92,-1815.71,-92.5,482,529,12407,3720,-3721,0,2025.35,12427.6
7740,1788.68,-1817.5,-85.3,1911,-1595,6628,3724,-3724,0,2027.25,7080.0
7760,1790.3,-1819.14,-77.1,162,787,11755,3727,-3727,0,2028.88,11782.4
7780,1791.77,-1820.63,-71.4,1267,-1545,7698,3730,-3730,0,2030.52,7953.1
7800,1793.11,-1822.0,-64.6,933,450,10475,3732,-3732,0,2031.61,10526.1
7820,1794.31,-1823.22,-57.5,276,-124,9570,3735,-3734,0,2032.97,9574.8
7840,1795.39,-1824.31,-51.4,556,-429,9264,3737,-3736,0,2034.06,9290.6
7860,1796.35,-1825.28,-44.0,572,-266,9771,3739,-3738,0,2035.14,9791.3
7880,1797.16,-1826.11,-38.3,520,2,9876,3741,-3740,0,2036.23,9889.7
7900,1797.87,-1826.83,-32.3,191,399,9790,3742,-3741,0,2036.78,9800.0
7920,1798.44,-1827.41,-25.5,364,172,9544,3743,-3742,0,2037.32,9552.5
7940,1798.87,-1827.85,-19.3,565,6,9362,3744,-3743,0,2037.87,9379.0
7960,1799.22,-1828.2,-14.7,741,569,9850,3745,-3744,0,2038.41,9894.2
7980,1799.42,-1828.4,-5.3,864,-170,9897,3746,-3744,0,2038.68,9936.1
8000,1799.44,-1828.42,1.6,423,-328,9890,3746,-3744,0,2038.68,9904.5
