ms,heading,rotZ,wz,ax,ay,az,left,right,stationary,enc_heading,acc_abs
0,0.0,0.0,0.0,34,30,9826,0,0,0,0.0,9826.1
20,0.0,0.0,-0.1,37,0,9785,0,0,0,0.0,9785.1
40,0.0,0.0,0.0,-2,124,9859,0,0,0,0.0,9859.8
60,0.0,0.0,0.2,151,11,9833,0,0,0,0.0,9834.2
80,0.0,0.0,0.0,51,49,9840,0,0,0,0.0,9840.3
100,0.0,0.0,0.1,56,76,9819,0,0,0,0.0,9819.5
120,0.0,0.0,-0.1,18,-21,9833,0,0,0,0.0,9833.0
140,0.0,0.0,0.0,49,18,9804,0,0,0,0.0,9804.1
160,0.0,0.0,0.0,-19,126,9811,0,0,0,0.0,9811.8
180,0.0,0.0,0.0,-12,-156,9907,0,0,0,0.0,9908.2
200,0.02,-0.02,-1.9,-436,-637,9537,0,0,0,0.0,9568.2
220,0.19,-0.2,-15.1,-609,-522,9405,0,-2,0,0.54,9439.1
240,0.6,-0.61,-25.2,-1152,212,9971,0,-4,0,1.09,10039.6
260,1.22,-1.28,-37.7,-844,476,10048,1,-6,0,1.91,10094.6
280,2.1,-2.19,-51.7,-808,672,10311,2,-9,0,2.99,10364.4
300,3.35,-3.4,-66.4,-107,404,9506,6,-11,0,4.63,9515.2
320,4.8,-4.87,-77.7,-704,519,10712,10,-15,0,6.8,10747.6
340,6.49,-6.59,-91.9,-720,931,10537,16,-19,0,9.53,10602.5
360,8.48,-8.61,-106.5,-1934,1367,12195,23,-23,0,12.52,12422.8
380,10.73,-10.9,-118.9,-1213,392,10191,29,-29,0,15.79,10270.4
400,13.21,-13.43,-129.9,-1227,394,9382,35,-35,0,19.05,9470.1
420,15.91,-16.16,-139.0,-1351,3008,11072,41,-41,0,22.32,11552.6
440,18.74,-19.04,-145.0,1151,-1820,9873,46,-47,0,25.31,10105.1
460,21.72,-22.07,-154.4,-872,3434,9198,52,-54,0,28.85,9856.8
480,24.88,-25.28,-161.1,504,-1677,7636,59,-61,0,32.66,7834.2
500,28.15,-28.6,-167.0,335,2280,10236,66,-68,0,36.47,10492.2
520,31.5,-32.01,-170.0,-1879,3060,12200,73,-75,0,40.28,12717.5
540,34.91,-35.47,-173.1,-1453,1592,12809,81,-82,0,44.37,12989.1
560,38.39,-39.01,-178.0,-1201,5058,14084,89,-91,0,48.99,15012.8
580,41.93,-42.6,-179.4,-1872,3226,14576,96,-99,0,53.08,15045.6
600,45.53,-46.26,-182.6,-623,2888,13508,103,-107,0,57.16,13827.3
620,49.17,-49.96,-182.8,807,-2750,7929,111,-115,0,61.51,8431.1
640,52.86,-53.71,-186.3,871,-2879,6668,119,-125,0,66.41,7315.0
660,56.65,-57.57,-191.4,37,-498,10112,128,-133,0,71.04,10124.3
680,60.51,-61.48,-195.7,-1848,3257,7430,137,-142,0,75.94,8320.3
700,64.42,-65.46,-198.4,-1187,3683,7559,147,-151,0,81.11,8491.9
720,68.4,-69.5,-201.8,-2,-400,9355,156,-161,0,86.28,9363.5
740,72.47,-73.88,-206.9,-1062,2088,15099,166,-170,0,91.45,15279.6
760,76.85,-78.09,-210.5,3195,-2819,7029,175,-179,0,96.35,8219.6
780,81.06,-82.36,-212.0,1589,-3660,2620,186,-189,0,102.07,4773.4
800,85.37,-86.75,-219.7,2589,-2757,7531,196,-199,0,107.51,8427.3
820,89.81,-91.26,-224.2,1143,-1411,4584,206,-210,0,113.23,4930.6
840,94.33,-95.85,-229.7,380,1015,10657,217,-221,0,119.22,10712.0
860,98.94,-100.53,-234.0,359,-1856,5833,227,-231,0,124.66,6131.7
880,103.65,-105.32,-240.0,-47,-1693,6475,239,-241,0,130.65,6692.8
900,108.45,-110.19,-244.7,-1076,1283,9508,250,-253,0,136.91,9654.3
920,113.36,-115.18,-249.5,-4230,1705,9119,261,-265,0,143.17,10195.9
940,118.36,-120.26,-251.1,-559,941,7808,273,-277,0,149.7,7884.3
960,123.34,-125.33,-250.9,1902,2658,13415,284,-289,0,155.96,13807.4
980,128.35,-130.41,-252.8,-538,248,11464,295,-301,0,162.22,11479.3
1000,133.4,-135.54,-254.0,3086,703,8192,306,-314,0,168.76,8782.2
1020,138.45,-140.68,-254.4,674,-702,4851,317,-326,0,175.02,4947.7
1040,143.52,-145.83,-255.2,-1187,794,11765,328,-336,0,180.73,11851.4
1060,148.58,-150.97,-256.3,-666,-944,9250,338,-347,0,186.45,9321.9
1080,153.66,-156.14,-255.7,-531,-1205,8581,350,-358,0,192.71,8681.4
1100,158.8,-161.35,-259.5,468,775,8679,361,-367,0,198.15,8726.1
1120,163.98,-166.62,-259.7,-1936,3477,12369,372,-378,0,204.14,12993.5
1140,169.17,-171.89,-261.5,170,3602,12768,383,-389,0,210.13,13267.4
1160,174.37,-177.49,-259.6,-47,2383,5966,395,-400,0,216.39,6424.5
1180,179.58,-182.78,-262.1,-434,1506,7796,405,-411,0,222.1,7952.0
1200,185.1,-188.08,-262.3,-2978,3317,11459,417,-421,0,228.09,12295.5
1220,190.33,-193.39,-263.6,1684,890,9616,428,-433,0,234.35,9802.8
1240,195.59,-198.74,-265.8,-263,2538,8352,439,-444,0,240.34,8733.1
1260,200.87,-204.1,-265.1,-270,-275,11784,451,-455,0,246.6,11790.3
1280,206.14,-209.46,-265.3,2115,675,7676,461,-467,0,252.59,7990.6
1300,211.39,-214.8,-263.9,-905,21,6344,472,-478,0,258.58,6408.3
1320,216.62,-220.11,-262.5,20,3127,10693,482,-489,0,264.29,11140.9
1340,221.84,-225.41,-262.5,1302,873,4810,493,-501,0,270.55,5059.0
1360,227.05,-230.7,-260.9,-1043,574,13836,504,-512,0,276.54,13887.1
1380,232.21,-235.95,-259.1,2195,1932,14163,514,-523,0,282.26,14461.7
1400,237.29,-241.11,-253.1,1608,-2692,9453,525,-533,0,287.97,9959.5
1420,242.3,-246.2,-251.3,1015,6840,11992,536,-544,0,293.96,13842.8
1440,247.28,-251.26,-249.5,-1976,3489,14132,546,-554,0,299.41,14689.8
1460,252.25,-256.31,-249.2,-2884,5494,10134,557,-565,0,305.39,11882.7
1480,257.21,-261.35,-248.5,-1282,1063,7965,566,-574,0,310.29,8137.2
1500,262.16,-266.38,-246.4,-2801,7432,15245,577,-584,0,316.01,17189.8
1520,267.13,-271.43,-254.3,1056,1379,11304,587,-595,0,321.73,11436.7
1540,272.1,-276.49,-249.8,-4050,6402,16057,598,-605,0,327.44,17754.3
1560,277.1,-281.86,-250.7,4456,11,1933,609,-616,0,333.43,4857.2
1580,282.1,-286.65,-251.5,-424,-6743,5864,621,-627,0,339.69,8946.2
1600,287.16,-291.79,-256.5,-562,4541,15567,632,-639,0,345.95,16225.5
1620,292.24,-297.25,-254.6,2726,2047,12066,642,-649,0,351.39,12538.3
1640,297.58,-302.37,-252.0,997,-110,1682,653,-661,0,357.65,1958.4
1660,302.62,-307.5,-252.1,-455,3034,19099,664,-673,0,363.91,19343.8
1680,307.63,-312.58,-251.4,1025,4112,16078,674,-683,0,369.36,16627.1
1700,312.62,-317.66,-249.9,338,3425,9281,684,-693,0,374.8,9898.6
1720,317.62,-322.73,-250.5,2634,2811,12032,695,-704,0,380.79,12633.6
1740,322.56,-327.75,-248.3,2456,205,9279,705,-713,0,385.96,9600.7
1760,327.49,-332.76,-249.0,1814,-211,6148,716,-722,0,391.41,6413.5
1780,332.48,-337.84,-251.4,-1005,5844,15780,727,-731,0,396.85,16857.4
1800,337.51,-342.95,-255.2,-1460,-29,5030,738,-741,0,402.56,5237.7
1820,342.58,-348.1,-254.5,193,291,9795,748,-751,0,408.01,9801.2
1840,347.64,-353.24,-253.9,883,3937,12388,758,-762,0,413.72,13028.5
1860,352.68,-358.36,-253.2,707,1714,7375,769,-772,0,419.44,7604.5
1880,357.7,-363.46,-253.8,1252,-520,14141,779,-782,0,424.88,14205.8
1900,362.75,-368.6,-256.7,757,3650,18872,790,-793,0,430.87,19236.6
1920,367.84,-373.76,-256.9,2328,-3468,3535,801,-803,0,436.59,5472.0
1940,372.93,-378.94,-255.5,-17,335,6781,812,-814,0,442.58,6789.3
1960,378.02,-384.11,-254.8,61,864,10664,823,-825,0,448.56,10699.1
1980,383.1,-389.27,-253.8,1762,289,5135,833,-836,0,454.28,5436.6
2000,388.14,-394.4,-252.8,1868,1530,7079,843,-848,0,460.27,7479.5
2020,393.16,-399.49,-251.3,3667,967,10041,853,-858,0,465.71,10733.3
2040,398.13,-404.55,-247.7,444,936,7946,863,-870,0,471.7,8013.2
2060,403.31,-409.8,-243.8,-152,4011,10062,874,-881,0,477.69,10833.1
2080,408.13,-414.71,-242.0,452,2136,11225,885,-891,0,483.4,11435.4
2100,412.91,-419.56,-239.4,2368,-520,10910,895,-901,0,488.85,11176.1
2120,417.68,-424.41,-239.2,383,2320,5044,906,-911,0,494.56,5565.2
2140,422.45,-429.25,-239.4,1110,3463,11005,916,-921,0,500.01,11590.3
2160,427.2,-434.08,-239.6,252,1796,10635,925,-931,0,505.18,10788.5
2180,431.95,-438.91,-240.9,610,-460,9023,936,-942,0,511.17,9055.3
2200,436.75,-443.79,-242.5,421,591,3576,946,-951,0,516.34,3648.9
2220,441.58,-448.69,-244.7,1793,-302,8491,957,-961,0,522.06,8683.5
2240,446.43,-453.62,-245.6,-2888,-639,3657,969,-971,0,528.04,4703.5
2260,451.33,-458.6,-247.8,-2223,5887,13441,980,-982,0,534.03,14841.1
2280,456.28,-463.63,-249.1,-614,1101,8056,991,-993,0,540.02,8154.0
2300,461.23,-468.66,-246.2,-519,4876,19627,1001,-1004,0,545.74,20230.3
2320,466.17,-473.68,-248.2,-2171,5338,6150,1011,-1015,0,551.45,8427.9
2340,471.15,-478.74,-253.1,328,-1226,8562,1022,-1026,0,557.44,8655.5
2360,476.19,-483.86,-253.0,13,3822,10033,1033,-1037,0,563.43,10736.3
2380,481.23,-488.98,-255.4,127,1400,11968,1042,-1049,0,569.14,12050.3
2400,486.3,-494.13,-255.4,215,-330,5775,1053,-1058,0,574.59,5788.4
2420,491.38,-499.3,-254.6,-865,5144,10518,1064,-1069,0,580.58,11740.4
2440,496.46,-504.45,-257.0,1139,4756,16424,1075,-1078,0,586.02,17136.6
2460,501.6,-510.0,-260.8,430,5889,15923,1086,-1088,0,591.74,16982.6
2480,506.78,-514.94,-259.7,316,3923,12192,1097,-1098,0,597.45,12811.5
2500,511.94,-520.18,-259.0,-1118,1539,7187,1107,-1108,0,602.89,7434.5
2520,517.11,-525.75,-260.6,-1893,2823,6989,1118,-1118,0,608.61,7771.7
2540,522.62,-531.04,-261.6,-1043,4613,19596,1128,-1129,0,614.33,20158.6
2560,527.8,-536.3,-261.1,-329,1384,9391,1138,-1140,0,620.04,9498.1
2580,532.99,-541.58,-260.3,-140,3123,6294,1149,-1150,0,625.76,7027.6
2600,538.2,-546.87,-262.5,409,2373,11593,1160,-1160,0,631.47,11840.4
2620,543.4,-552.15,-262.0,-808,526,3432,1171,-1172,0,637.73,3564.9
2640,548.59,-557.43,-260.1,-711,2577,9690,1181,-1183,0,643.45,10052.0
2660,553.74,-562.66,-257.5,-441,2898,14679,1191,-1194,0,649.17,14968.8
2680,558.84,-567.85,-254.8,-363,2732,10619,1201,-1206,0,655.15,10970.8
2700,563.91,-572.99,-253.8,1788,1556,14280,1211,-1216,0,660.6,14475.4
2720,568.93,-578.1,-251.3,-14,4569,16639,1222,-1228,0,666.86,17254.9
2740,573.93,-583.18,-249.6,-1216,3815,9635,1232,-1239,0,672.57,10433.9
2760,578.91,-588.24,-249.2,101,854,7963,1243,-1249,0,678.29,8009.3
2780,583.87,-593.28,-250.2,1935,83,15565,1253,-1259,0,683.73,15685.0
2800,588.83,-598.32,-248.9,430,373,9417,1264,-1269,0,689.45,9434.2
2820,593.78,-603.34,-247.4,1314,2531,6695,1273,-1280,0,694.89,7277.1
2840,598.7,-608.34,-244.2,-225,3884,6707,1283,-1289,0,700.07,7753.7
2860,603.57,-613.3,-244.7,-40,1331,4459,1293,-1300,0,705.78,4653.6
2880,608.48,-618.28,-248.8,876,3506,10017,1303,-1308,0,710.68,10648.9
2900,613.45,-623.34,-251.7,989,4735,10282,1314,-1319,0,716.67,11363.0
2920,618.48,-628.44,-254.5,-185,4517,10760,1325,-1328,0,722.11,11671.1
2940,623.56,-633.6,-256.0,-1753,2201,4954,1336,-1340,0,728.37,5697.3
2960,628.95,-639.08,-258.5,-3301,4325,-787,1346,-1351,0,734.09,5497.4
2980,634.02,-644.23,-252.5,250,-1586,12085,1357,-1362,0,740.08,12191.2
3000,639.04,-649.34,-253.7,-1320,1343,3621,1368,-1372,0,745.79,4081.4
3020,644.08,-654.46,-253.3,-488,6883,9150,1378,-1384,0,751.78,11460.2
3040,649.14,-659.59,-253.5,366,3918,20735,1388,-1395,0,757.5,21105.1
3060,654.16,-664.7,-252.7,639,4450,10038,1398,-1406,0,763.21,10998.7
3080,659.17,-669.78,-253.6,-976,3669,13415,1408,-1416,0,768.66,13941.9
3100,664.16,-674.86,-250.6,-1104,-9,7199,1418,-1426,0,774.1,7283.2
3120,669.15,-679.93,-252.0,-2168,2253,11727,1428,-1435,0,779.27,12136.7
3140,674.17,-685.03,-252.9,-585,2598,9059,1439,-1444,0,784.72,9442.3
3160,679.2,-690.15,-253.2,359,4256,16377,1449,-1453,0,789.89,16924.8
3180,684.22,-695.25,-251.6,1212,2349,16283,1460,-1463,0,795.6,16496.1
3200,689.27,-700.37,-254.1,-31,6670,17084,1470,-1473,0,801.05,18339.9
3220,694.32,-705.51,-254.2,-64,3015,10029,1481,-1483,0,806.76,10472.6
3240,699.36,-710.63,-252.0,-164,2826,13845,1491,-1494,0,812.48,14131.4
3260,704.37,-715.72,-251.6,802,3460,13547,1501,-1504,0,817.92,14004.9
3280,709.39,-720.82,-253.6,-682,1724,6255,1511,-1514,0,823.37,6524.0
3300,714.44,-725.95,-253.4,-2052,1506,6716,1522,-1524,0,829.08,7182.2
3320,719.51,-731.1,-255.3,1387,2454,12508,1533,-1535,0,835.07,12821.7
3340,724.6,-736.27,-255.6,-716,447,8925,1543,-1546,0,840.79,8964.8
3360,729.66,-741.72,-252.3,1759,2450,5849,1553,-1557,0,846.5,6580.8
3380,734.69,-746.82,-253.4,1283,3216,9537,1563,-1568,0,852.22,10146.1
3400,739.73,-751.94,-253.4,-936,4723,10387,1573,-1579,0,857.93,11448.7
3420,745.02,-757.03,-249.0,2676,-1588,9152,1583,-1590,0,863.65,9666.5
3440,749.94,-762.02,-247.2,1852,2359,8484,1594,-1600,0,869.37,8998.5
3460,754.8,-766.96,-240.7,2435,136,9453,1604,-1610,0,874.81,9762.5
3480,759.6,-771.84,-240.1,684,18,8722,1615,-1620,0,880.53,8748.8
3500,764.35,-776.67,-236.8,861,715,5983,1624,-1630,0,885.7,6086.8
3520,769.09,-781.48,-237.8,2200,2100,10320,1635,-1640,0,891.41,10758.8
3540,773.84,-786.31,-238.1,-924,179,5632,1644,-1650,0,896.58,5710.1
3560,778.59,-791.14,-239.4,482,2545,15034,1654,-1660,0,902.03,15255.5
3580,783.35,-795.97,-240.1,546,5034,10019,1664,-1669,0,907.2,11225.8
3600,788.15,-800.84,-242.9,376,1932,7872,1675,-1679,0,912.92,8114.3
3620,792.99,-805.76,-243.6,-528,1113,4794,1686,-1688,0,918.36,4949.7
3640,797.87,-810.72,-245.7,-1870,5496,9611,1697,-1699,0,924.35,11228.3
3660,802.79,-815.72,-248.5,-197,157,6979,1708,-1710,0,930.34,6983.5
3680,807.73,-820.74,-249.3,2290,1757,16663,1718,-1721,0,936.05,16911.1
3700,812.67,-825.77,-249.0,-1277,3621,17079,1729,-1731,0,941.77,17505.3
3720,817.66,-830.83,-251.1,248,452,8722,1739,-1743,0,947.76,8737.2
3740,822.66,-835.91,-253.3,343,-3866,7996,1749,-1754,0,953.47,8888.2
3760,827.65,-840.99,-252.9,416,1132,10346,1759,-1765,0,959.19,10416.1
3780,832.67,-846.08,-253.2,-884,1355,6210,1769,-1775,0,964.63,6417.3
3800,837.72,-851.21,-254.8,-405,2062,11046,1779,-1785,0,970.08,11244.1
3820,842.81,-856.69,-257.3,-936,3333,9300,1790,-1795,0,975.79,9923.5
3840,847.92,-861.89,-259.7,-244,1650,15032,1801,-1804,0,981.24,15124.3
3860,853.07,-867.12,-259.2,598,3436,11132,1812,-1814,0,986.95,11665.6
3880,858.52,-872.35,-258.9,2485,1321,12520,1822,-1824,0,992.39,12832.4
3900,863.68,-877.59,-258.4,-353,1118,9878,1833,-1833,0,997.84,9947.3
3920,868.82,-882.82,-257.7,-851,1585,5759,1843,-1844,0,1003.55,6033.4
3940,873.94,-888.02,-254.2,-1306,1779,4992,1853,-1854,0,1009.0,5458.1
3960,879.04,-893.21,-257.0,-957,1894,9587,1864,-1865,0,1014.99,9819.0
3980,884.17,-898.41,-257.2,869,-340,9852,1874,-1875,0,1020.43,9896.1
4000,889.31,-903.64,-259.1,712,-1473,4631,1885,-1885,0,1026.15,4911.5
4020,894.45,-908.86,-257.5,902,-769,9171,1896,-1896,0,1032.13,9247.3
4040,899.56,-914.05,-256.1,-1171,2133,4832,1905,-1907,0,1037.58,5410.1
4060,904.63,-919.21,-254.7,-912,380,9847,1916,-1918,0,1043.57,9896.4
4080,909.69,-924.34,-253.9,1089,97,6986,1926,-1929,0,1049.28,7071.0
4100,914.7,-929.44,-250.3,-559,2483,13573,1935,-1940,0,1054.73,13809.6
4120,919.66,-934.48,-247.2,579,2689,7459,1945,-1951,0,1060.44,7950.0
4140,924.55,-939.45,-246.4,3001,1053,16109,1956,-1961,0,1066.16,16419.9
4160,929.42,-944.39,-245.4,-1166,2160,10638,1966,-1972,0,1071.87,10917.5
4180,934.3,-949.35,-244.2,-687,311,8035,1977,-1982,0,1077.59,8070.3
4200,939.15,-954.28,-244.9,-1078,2407,16620,1987,-1992,0,1083.03,16828.0
4220,944.03,-959.24,-244.9,-443,2852,8591,1997,-2002,0,1088.48,9062.9
4240,948.91,-964.2,-245.6,-1656,2531,1049,2006,-2012,0,1093.65,3201.4
4260,953.79,-969.45,-246.7,738,646,13279,2017,-2023,0,1099.64,13315.2
4280,958.69,-974.42,-247.5,-192,2648,10511,2027,-2031,0,1104.54,10841.1
4300,963.62,-979.44,-250.3,-3720,6114,19254,2037,-2041,0,1109.98,20541.1
4320,968.88,-984.49,-252.2,-116,1115,13324,2048,-2052,0,1115.97,13371.1
4340,973.91,-989.6,-255.3,-1763,4622,9587,2059,-2063,0,1121.96,10788.0
4360,979.0,-994.77,-256.6,-1445,2617,8144,2069,-2074,0,1127.67,8675.3
4380,984.09,-999.94,-255.4,-846,1645,9140,2079,-2085,0,1133.39,9325.3
4400,989.14,-1005.08,-250.4,-2393,-2771,19023,2090,-2096,0,1139.38,19372.1
4420,994.2,-1010.22,-258.0,-2426,8505,10325,2101,-2108,0,1145.64,13595.1
4440,999.24,-1015.34,-251.8,4878,4110,10903,2111,-2118,0,1151.08,12631.8
4460,1004.24,-1020.42,-251.8,2281,-1128,12157,2121,-2129,0,1156.8,12420.5
4480,1009.25,-1025.51,-250.9,584,488,5181,2131,-2138,0,1161.97,5236.6
4500,1014.25,-1030.59,-249.1,1091,2248,13745,2141,-2148,0,1167.41,13970.3
4520,1019.2,-1035.61,-248.6,707,-1025,11817,2152,-2157,0,1172.85,11882.4
4540,1024.16,-1040.66,-251.5,1314,1312,9374,2162,-2166,0,1178.03,9556.1
4560,1029.16,-1045.74,-250.2,-1156,-364,8316,2173,-2176,0,1183.74,8403.8
4580,1034.16,-1050.82,-250.2,-119,2888,7373,2183,-2185,0,1188.91,7919.3
4600,1039.16,-1055.9,-249.1,928,248,5821,2194,-2195,0,1194.63,5899.7
4620,1044.15,-1060.98,-251.2,-26,1743,10346,2204,-2206,0,1200.35,10491.8
4640,1049.13,-1066.03,-250.6,2392,-1868,10208,2214,-2216,0,1205.79,10649.6
4660,1054.09,-1071.08,-249.5,-1178,2960,4818,2225,-2226,0,1211.51,5776.0
4680,1059.07,-1076.13,-250.4,-1216,-385,10186,2235,-2236,0,1216.95,10265.5
4700,1064.04,-1081.18,-247.9,1686,1338,7065,2246,-2247,0,1222.94,7385.6
4720,1068.99,-1086.21,-251.3,1219,2363,13867,2257,-2258,0,1228.93,14119.6
4740,1073.95,-1091.55,-248.3,-1462,1983,10948,2266,-2268,0,1234.1,11221.8
4760,1079.18,-1096.56,-248.1,-1223,2047,7036,2276,-2279,0,1239.81,7429.1
4780,1084.12,-1101.59,-249.9,1056,519,15409,2286,-2290,0,1245.53,15453.9
4800,1089.07,-1106.61,-248.4,-182,4821,10810,2296,-2301,0,1251.24,11837.7
4820,1093.97,-1111.6,-245.8,1089,-1188,9482,2307,-2312,0,1257.23,9618.0
4840,1098.86,-1116.56,-246.0,91,1458,9945,2318,-2322,0,1262.95,10051.7
4860,1103.72,-1121.5,-243.4,-682,955,4748,2328,-2333,0,1268.66,4890.9
4880,1108.51,-1126.37,-238.7,-1592,3760,10017,2339,-2343,0,1274.38,10817.2
4900,1113.26,-1131.19,-238.7,745,2277,13797,2349,-2353,0,1279.82,14003.5
4920,1117.99,-1136.0,-239.5,-1559,255,9639,2358,-2363,0,1285.0,9767.6
4940,1122.72,-1140.81,-238.0,1994,-2204,3179,2368,-2372,0,1290.17,4352.0
4960,1127.45,-1145.62,-238.5,-225,-48,8335,2379,-2384,0,1296.43,8338.2
4980,1132.2,-1150.44,-240.6,-2673,5566,6583,2389,-2392,0,1301.33,9025.6
5000,1137.01,-1155.33,-243.2,-2715,1036,9642,2400,-2402,0,1307.04,10070.4
5020,1141.87,-1160.26,-244.2,-1182,1115,3733,2412,-2413,0,1313.3,4071.3
5040,1146.8,-1165.27,-248.6,51,1642,7027,2423,-2424,0,1319.29,7216.5
5060,1151.76,-1170.32,-248.1,1011,505,10196,2434,-2437,0,1325.82,10258.4
5080,1156.69,-1175.33,-247.0,402,1836,10528,2444,-2445,0,1330.72,10694.5
5100,1161.62,-1180.33,-249.6,117,2066,14545,2454,-2456,0,1336.44,14691.5
5120,1166.58,-1185.37,-249.5,3252,-1768,13482,2465,-2467,0,1342.43,13980.9
5140,1171.54,-1190.42,-249.7,686,394,10965,2475,-2478,0,1348.14,10993.5
5160,1176.5,-1195.75,-249.1,-1569,3489,11796,2485,-2489,0,1353.86,12400.8
5180,1181.77,-1200.81,-250.3,-3372,6222,9931,2495,-2498,0,1359.03,12194.6
5200,1186.78,-1205.89,-251.1,-3052,2457,11552,2506,-2508,0,1364.75,12198.4
5220,1191.82,-1211.02,-254.6,-1268,4311,2840,2517,-2517,0,1370.19,5315.8
5240,1196.93,-1216.21,-258.0,1027,1997,12754,2528,-2530,0,1376.72,12950.2
5260,1202.06,-1221.43,-257.9,80,1669,14550,2539,-2537,0,1381.62,14645.6
5280,1207.16,-1226.61,-257.0,-1844,706,9742,2550,-2547,0,1387.34,9940.1
5300,1212.29,-1231.82,-258.3,-1097,3846,15641,2558,-2558,0,1392.51,16144.2
5320,1217.42,-1237.03,-258.3,688,3367,12016,2570,-2568,0,1398.5,12497.8
5340,1222.53,-1242.23,-257.6,705,792,12625,2578,-2579,0,1403.67,12669.4
5360,1227.63,-1247.41,-255.4,-628,5020,6833,2591,-2589,0,1409.93,8502.0
5380,1232.76,-1252.62,-259.7,622,90,9035,2603,-2600,0,1416.19,9056.8
5400,1237.92,-1257.86,-259.4,2314,2057,12348,2611,-2611,0,1421.36,12730.2
5420,1243.07,-1263.1,-258.1,167,1147,8698,2621,-2622,0,1427.08,8774.9
5440,1248.2,-1268.31,-255.7,985,3796,14717,2634,-2636,0,1434.43,15230.6
5460,1253.26,-1273.45,-252.9,1181,-91,7356,2644,-2645,0,1439.6,7450.8
5480,1258.29,-1278.56,-253.1,2075,4407,11674,2654,-2655,0,1445.04,12649.5
5500,1263.29,-1283.64,-250.9,693,2471,6967,2662,-2667,0,1450.49,7424.6
5520,1268.26,-1288.69,-248.3,-517,1602,4727,2675,-2680,0,1457.56,5017.8
5540,1273.18,-1293.69,-246.7,-92,1604,7710,2686,-2691,0,1463.55,7875.6
5560,1278.06,-1298.65,-243.9,764,2148,12555,2696,-2701,0,1468.99,12760.3
5580,1282.9,-1303.86,-244.2,350,3654,10327,2706,-2709,0,1473.89,10960.0
5600,1287.75,-1308.5,-245.6,2051,809,7402,2716,-2722,0,1480.15,7723.4
5620,1292.63,-1313.75,-244.7,-789,3825,13809,2723,-2731,0,1484.51,14350.7
5640,1297.78,-1318.69,-244.9,-1514,5142,11767,2736,-2743,0,1491.31,12930.4
5660,1302.7,-1323.68,-249.9,58,3626,10213,2744,-2749,0,1495.12,10837.7
5680,1307.68,-1328.75,-249.7,-2099,2567,4904,2755,-2762,0,1501.66,5919.8
5700,1312.68,-1333.83,-250.6,-1130,2330,6702,2766,-2773,0,1507.65,7184.9
5720,1317.7,-1338.93,-252.3,-1953,4601,9589,2777,-2783,0,1513.36,10813.5
5740,1322.74,-1344.05,-255.7,-107,-1176,3592,2788,-2792,0,1518.81,3781.1
5760,1327.81,-1349.2,-256.1,409,3619,6606,2801,-2805,0,1525.88,7543.5
5780,1332.89,-1354.37,-256.4,468,1547,10750,2809,-2817,0,1531.33,10870.8
5800,1338.01,-1359.57,-256.7,-2370,6555,13568,2819,-2828,0,1537.04,15253.7
5820,1343.11,-1364.75,-251.3,-782,8397,9866,2830,-2836,0,1542.21,12979.2
5840,1348.19,-1369.91,-255.2,402,1451,7509,2839,-2850,0,1548.47,7658.5
5860,1353.31,-1375.11,-257.6,-2689,2708,11452,2850,-2860,0,1554.19,12071.1
5880,1358.41,-1380.29,-255.8,-289,1290,11447,2859,-2869,0,1559.09,11523.1
5900,1363.51,-1385.48,-258.2,1030,948,4235,2871,-2877,0,1564.53,4460.4
5920,1368.66,-1390.71,-260.9,-2272,2335,10891,2881,-2888,0,1570.25,11367.9
5940,1373.82,-1395.96,-260.1,-851,979,5458,2892,-2898,0,1575.96,5610.0
5960,1379.0,-1401.21,-260.3,-408,3882,8517,2906,-2908,0,1582.5,9368.9
5980,1384.19,-1406.49,-261.6,-1185,5458,8472,2913,-2918,0,1587.12,10147.4
6000,1389.35,-1411.74,-260.2,-2005,8016,11989,2924,-2928,0,1592.84,14560.6
6020,1394.45,-1416.91,-256.2,-2054,2749,16498,2933,-2939,0,1598.28,16851.1
6040,1399.54,-1422.09,-256.9,-1372,394,7660,2943,-2949,0,1603.73,7791.9
6060,1404.64,-1427.58,-257.2,513,-141,4199,2954,-2960,0,1609.72,4232.6
6080,1410.06,-1432.77,-255.2,-744,-2745,1725,2965,-2970,0,1615.43,3326.3
6100,1415.16,-1437.96,-256.7,741,4646,9002,2975,-2981,0,1621.15,10157.3
6120,1420.25,-1443.13,-256.4,-998,1132,13850,2985,-2991,0,1626.59,13932.0
6140,1425.3,-1448.26,-253.6,-2625,6531,15178,2996,-3003,0,1632.85,16730.7
6160,1430.32,-1453.37,-252.4,-2227,811,12379,3006,-3013,0,1638.3,12603.8
6180,1435.33,-1458.46,-251.7,-488,3494,6989,3016,-3024,0,1644.01,7828.9
6200,1440.3,-1463.5,-247.7,596,-1514,1694,3026,-3035,0,1649.73,2348.8
6220,1445.23,-1468.51,-247.0,-3118,6819,14755,3036,-3045,0,1655.17,16550.9
6240,1450.11,-1473.48,-244.4,771,212,15082,3046,-3055,0,1660.61,15103.2
6260,1454.94,-1478.38,-243.4,-1400,4419,14905,3057,-3065,0,1666.33,15609.2
6280,1459.75,-1483.26,-241.7,1596,157,13019,3066,-3075,0,1671.5,13117.4
6300,1464.54,-1488.14,-241.0,-1661,3271,13000,3077,-3085,0,1677.22,13507.7
6320,1469.31,-1492.98,-239.8,-803,3264,11911,3086,-3094,0,1682.12,12376.2
6340,1474.08,-1497.83,-239.5,-1500,1877,9162,3096,-3104,0,1687.56,9471.8
6360,1478.88,-1502.71,-241.7,13,279,7242,3106,-3114,0,1693.0,7247.4
6380,1483.71,-1507.62,-242.3,-1088,1810,14662,3117,-3124,0,1698.72,14813.3
6400,1488.55,-1512.53,-244.2,854,255,15689,3128,-3135,0,1704.71,15714.3
6420,1493.45,-1517.51,-248.6,-4239,4455,13793,3139,-3145,0,1710.42,15101.8
6440,1498.45,-1522.59,-253.5,-2327,3092,10798,3149,-3156,0,1716.14,11470.5
6460,1503.45,-1527.97,-250.1,-1964,203,13520,3160,-3166,0,1721.86,13663.4
6481,1508.71,-1533.02,-250.6,-922,2416,8452,3173,-3178,0,1728.66,8838.7
6500,1513.41,-1537.79,-252.6,835,-2867,1336,3181,-3188,0,1733.56,3271.4
6520,1518.41,-1542.87,-248.9,-251,232,7349,3191,-3199,0,1739.28,7356.9
6540,1523.38,-1548.22,-249.4,-479,2663,10764,3201,-3210,0,1744.99,11098.9
6560,1528.65,-1553.28,-249.0,-1187,4009,7172,3210,-3219,0,1749.89,8301.7
6580,1533.6,-1558.3,-247.9,-123,2064,10423,3221,-3229,0,1755.61,10626.1
6600,1538.52,-1563.3,-247.2,-611,-764,4221,3231,-3238,0,1760.78,4332.9
6620,1543.49,-1568.36,-254.1,1598,-299,11734,3242,-3247,0,1766.22,11846.1
6640,1548.52,-1573.47,-252.9,1032,-666,7772,3253,-3257,0,1771.94,7868.5
6660,1553.54,-1578.57,-251.8,-1398,2505,4108,3263,-3267,0,1777.38,5010.5
6680,1558.57,-1583.68,-253.8,-1301,3010,12522,3274,-3277,0,1783.1,12944.2
6700,1563.61,-1588.8,-252.5,826,-1696,6423,3284,-3288,0,1788.81,6694.3
6720,1568.63,-1593.9,-251.1,-2412,1954,3655,3294,-3298,0,1794.26,4795.3
6740,1573.65,-1599.0,-253.5,556,2718,14851,3305,-3308,0,1799.97,15107.9
6760,1578.66,-1604.1,-252.3,-149,3336,15417,3316,-3318,0,1805.69,15774.5
6780,1583.67,-1609.18,-253.2,-74,-48,10430,3326,-3329,0,1811.41,10430.4
6800,1588.68,-1614.28,-252.5,-1403,4979,13227,3337,-3340,0,1817.39,14202.5
6820,1593.71,-1619.39,-252.7,838,1451,10552,3347,-3351,0,1823.11,10684.2
6840,1598.71,-1624.47,-249.7,-1351,1882,8579,3357,-3362,0,1828.83,8886.3
6860,1603.72,-1629.56,-251.9,219,2263,11015,3368,-3372,0,1834.54,11247.2
6880,1608.73,-1634.65,-251.2,-1168,1079,9618,3379,-3383,0,1840.53,9748.6
6900,1613.72,-1639.71,-249.3,1525,2780,9816,3390,-3394,0,1846.52,10315.4
6920,1618.65,-1644.72,-246.2,-76,5310,8665,3401,-3404,0,1852.23,10162.9
6940,1623.55,-1649.71,-245.6,1987,2773,13274,3411,-3415,0,1857.95,13705.4
6960,1628.72,-1654.96,-245.2,-213,2622,11691,3421,-3425,0,1863.39,11983.3
6980,1633.58,-1659.9,-245.5,1392,-445,7213,3430,-3435,0,1868.57,7359.6
7000,1638.17,-1664.85,-246.2,1805,81,11576,3440,-3445,0,1874.01,11716.2
7020,1643.34,-1669.81,-246.0,-142,1194,14022,3450,-3455,0,1879.45,14073.5
7040,1648.25,-1674.8,-249.1,1314,1388,15214,3461,-3464,0,1884.9,15333.6
7060,1653.21,-1679.84,-249.9,2468,1405,10611,3471,-3475,0,1890.61,10984.5
7080,1658.22,-1684.94,-254.7,-815,1947,10879,3482,-3485,0,1896.33,11081.9
7100,1663.32,-1690.12,-257.3,-19,1769,10963,3494,-3496,0,1902.59,11104.8
7120,1668.47,-1695.35,-260.1,3252,1846,19680,3504,-3508,0,1908.58,20032.1
7140,1673.58,-1700.54,-254.5,-1550,1240,11048,3515,-3519,0,1914.57,11224.9
7160,1678.61,-1705.65,-253.1,319,1616,8517,3526,-3530,0,1920.55,8674.8
7180,1683.65,-1710.78,-256.6,847,-730,10659,3535,-3541,0,1926.0,10717.5
7200,1688.74,-1715.94,-256.4,620,-388,6157,3545,-3553,0,1931.99,6200.3
7220,1693.81,-1721.09,-253.3,-945,943,7789,3555,-3564,0,1937.7,7902.6
7240,1698.86,-1726.23,-254.9,994,6833,18870,3565,-3574,0,1943.15,20093.7
7260,1703.89,-1731.34,-252.7,-3308,6500,9059,3575,-3584,0,1948.59,11630.1
7280,1708.85,-1736.38,-245.3,883,-388,6743,3585,-3592,0,1953.49,6811.6
7300,1713.79,-1741.4,-248.1,-789,541,3432,3595,-3600,0,1958.39,3562.8
7320,1718.7,-1746.39,-245.8,-1040,1542,8792,3605,-3609,0,1963.56,8986.6
7340,1723.53,-1751.29,-240.5,421,-1411,7110,3614,-3617,0,1968.19,7260.9
7360,1728.25,-1756.09,-234.1,3034,2289,13162,3623,-3625,0,1972.81,13699.7
7380,1732.84,-1760.75,-227.2,2520,-3658,3060,3632,-3633,0,1977.44,5394.0
7400,1737.28,-1765.27,-221.1,-246,2917,9752,3639,-3642,0,1981.8,10181.9
7420,1741.56,-1769.62,-210.7,2411,-656,3072,3646,-3650,0,1985.88,3959.9
7440,1745.66,-1774.02,-200.9,994,-656,5935,3654,-3657,0,1989.96,6053.3
7460,1749.82,-1778.01,-192.2,-564,4210,9780,3660,-3665,0,1993.77,10662.6
7480,1753.61,-1781.86,-187.4,1103,907,8584,3667,-3672,0,1997.58,8702.0
7500,1757.25,-1785.56,-179.0,1070,-369,7246,3674,-3679,0,2001.39,7333.9
7520,1760.71,-1789.08,-170.7,305,354,8233,3679,-3685,0,2004.39,8246.2
7540,1764.0,-1792.42,-162.4,610,1348,12052,3686,-3692,0,2008.2,12142.5
7560,1767.13,-1795.6,-152.5,1027,1077,8858,3692,-3698,0,2011.46,8982.1
7580,1770.11,-1798.62,-145.9,1219,656,8433,3697,-3703,0,2014.19,8545.9
7600,1772.9,-1801.47,-135.4,-52,1156,7841,3702,-3709,0,2017.18,7925.9
7620,1775.54,-1804.14,-128.0,1485,-196,6296,3707,-3713,0,2019.63,6471.7
7640,1778.01,-1806.65,-120.8,-192,945,11884,3713,-3718,0,2022.62,11923.1
7660,1780.34,-1809.02,-113.7,1172,1223,10332,3717,-3723,0,2025.07,10469.9
7680,1782.51,-1811.23,-105.4,1425,-1411,10313,3721,-3726,0,2026.98,10506.2
7700,1784.54,-1813.29,-100.1,598,1266,12214,3725,-3730,0,2029.16,12294.0
7720,1786.46,-1815.25,-93.4,236,435,10805,3729,-3733,0,2031.06,10816.3
7740,1788.26,-1817.07,-86.8,1838,-1439,6728,3733,-3736,0,2032.97,7121.4
7760,1789.92,-1818.76,-80.3,947,83,10800,3736,-3739,0,2034.6,10841.8
7780,1791.45,-1820.31,-74.0,741,172,9016,3739,-3741,0,2035.96,9048.0
7800,1792.86,-1821.75,-68.3,838,-1456,8345,3742,-3744,0,2037.59,8512.4
7820,1794.15,-1823.05,-61.4,-1391,1259,12030,3744,-3746,0,2038.68,12175.4
7840,1795.3,-1824.22,-55.0,726,1453,8995,3747,-3748,0,2040.04,9140.5
7860,1796.33,-1825.33,-47.8,797,713,12221,3749,-3750,0,2041.13,12267.7
7880,1797.27,-1826.22,-41.9,489,770,9747,3751,-3751,0,2041.95,9789.6
7900,1798.06,-1827.02,-36.9,-123,150,10119,3753,-3752,0,2042.77,10120.9
7920,1798.74,-1827.72,-29.9,1198,965,10234,3754,-3753,0,2043.31,10349.0
7940,1799.24,-1828.22,-20.7,928,553,10248,3755,-3753,0,2043.58,10304.8
7960,1799.55,-1828.54,-11.4,660,76,9518,3756,-3754,0,2044.13,9541.2
7980,1799.68,-1828.67,-2.5,688,-199,9897,3757,-3754,0,2044.4,9922.9
8000,1799.68,-1828.67,1.4,-10,-498,9838,3757,-3753,0,2044.13,9850.6
